Trial,participant_id,Block,TACS,Stimulus_name,fMRI_scan_trigger_time,Stimulus_onset,Button,Response,RT,TACS_Stimulus_Phase
1,sub-013,1,aph40Hz,no_stimulus,94823,0,0,NaN,0,0
2,sub-013,1,aph40Hz,no_stimulus,97823,0,0,NaN,0,0
3,sub-013,1,aph40Hz,LE_lowF3_RE_ga,100823,102595,0,NaN,0,270
4,sub-013,1,aph40Hz,LE_highF3_RE_da,103823,105578,2,da,888,30
5,sub-013,1,aph40Hz,LE_highF3_RE_da,106823,108578,2,da,955,30
6,sub-013,1,aph40Hz,LE_lowF3_RE_amb,109823,111582,2,da,832,90
7,sub-013,1,aph40Hz,no_stimulus,112823,0,0,NaN,0,90
8,sub-013,1,aph40Hz,LE_lowF3_RE_amb,115823,117599,3,ga,803,330
9,sub-013,1,aph40Hz,no_stimulus,118823,0,0,NaN,0,330
10,sub-013,1,aph40Hz,LE_lowF3_RE_amb,121823,123590,0,NaN,0,210
11,sub-013,1,aph40Hz,LE_highF3_RE_da,124823,126590,2,da,879,210
12,sub-013,1,aph40Hz,LE_lowF3_RE_amb,127823,129598,2,da,965,330
13,sub-013,1,aph40Hz,no_stimulus,130822,0,0,NaN,0,330
14,sub-013,1,aph40Hz,LE_lowF3_RE_amb,133822,135594,3,ga,842,270
15,sub-013,1,aph40Hz,LE_highF3_RE_da,136822,138586,2,da,767,150
16,sub-013,1,aph40Hz,no_stimulus,139822,0,0,NaN,0,150
17,sub-013,1,aph40Hz,LE_highF3_RE_amb,142822,144594,0,NaN,0,270
18,sub-013,1,aph40Hz,no_stimulus,145822,0,0,NaN,0,270
19,sub-013,1,aph40Hz,LE_lowF3_RE_amb,148822,150577,2,da,849,30
20,sub-013,1,aph40Hz,LE_lowF3_RE_ga,151822,153594,3,ga,518,270
21,sub-013,1,aph40Hz,no_stimulus,154822,0,0,NaN,0,270
22,sub-013,1,aph40Hz,LE_highF3_RE_amb,157822,159586,0,NaN,0,150
23,sub-013,1,aph40Hz,LE_lowF3_RE_ga,160822,162581,3,ga,709,90
24,sub-013,1,aph40Hz,no_stimulus,163822,0,0,NaN,0,90
25,sub-013,1,aph40Hz,LE_highF3_RE_amb,166822,168594,2,da,786,270
26,sub-013,1,aph40Hz,no_stimulus,169822,0,0,NaN,0,270
27,sub-013,1,aph40Hz,LE_lowF3_RE_amb,172822,174581,3,ga,988,90
28,sub-013,1,aph40Hz,LE_highF3_RE_amb,175822,177577,2,da,787,30
29,sub-013,1,aph40Hz,LE_lowF3_RE_amb,178822,180590,3,ga,503,210
30,sub-013,1,aph40Hz,LE_highF3_RE_da,181821,183581,2,da,871,90
31,sub-013,1,aph40Hz,no_stimulus,184822,0,0,NaN,0,90
32,sub-013,1,aph40Hz,LE_lowF3_RE_amb,187821,189594,0,NaN,0,270
33,sub-013,1,aph40Hz,LE_highF3_RE_da,190821,192585,2,da,755,150
34,sub-013,1,aph40Hz,LE_highF3_RE_amb,193821,195589,2,da,834,210
35,sub-013,1,aph40Hz,no_stimulus,196821,0,0,NaN,0,210
36,sub-013,1,aph40Hz,LE_highF3_RE_amb,199821,201577,2,da,663,30
37,sub-013,1,aph40Hz,LE_lowF3_RE_ga,202821,204585,3,ga,714,150
38,sub-013,1,aph40Hz,LE_lowF3_RE_amb,205821,207589,2,da,968,210
39,sub-013,1,aph40Hz,LE_highF3_RE_amb,208821,210585,2,da,675,150
40,sub-013,1,aph40Hz,LE_highF3_RE_da,211821,213577,2,da,686,30
41,sub-013,1,aph40Hz,no_stimulus,214821,0,0,NaN,0,30
42,sub-013,1,aph40Hz,LE_highF3_RE_amb,217821,219589,2,da,1099,210
43,sub-013,1,aph40Hz,no_stimulus,220821,0,0,NaN,0,210
44,sub-013,1,aph40Hz,LE_highF3_RE_amb,223821,225585,0,NaN,0,150
45,sub-013,1,aph40Hz,LE_highF3_RE_amb,226821,228581,2,da,542,90
46,sub-013,1,aph40Hz,no_stimulus,229821,0,0,NaN,0,90
47,sub-013,1,aph40Hz,LE_lowF3_RE_amb,232821,234585,3,ga,944,150
48,sub-013,1,aph40Hz,LE_highF3_RE_da,235820,237593,2,da,535,270
49,sub-013,1,aph40Hz,no_stimulus,238820,0,0,NaN,0,270
50,sub-013,1,aph40Hz,LE_lowF3_RE_amb,241820,243581,3,ga,971,90
51,sub-013,1,aph40Hz,no_stimulus,244820,0,0,NaN,0,90
52,sub-013,1,aph40Hz,LE_lowF3_RE_amb,247820,249585,2,da,522,150
53,sub-013,1,aph40Hz,LE_highF3_RE_amb,250820,252589,2,da,607,210
54,sub-013,1,aph40Hz,LE_lowF3_RE_ga,253820,255576,3,ga,500,30
55,sub-013,1,aph40Hz,no_stimulus,256820,0,0,NaN,0,30
56,sub-013,1,aph40Hz,LE_highF3_RE_amb,259820,261597,2,da,889,330
57,sub-013,1,aph40Hz,LE_lowF3_RE_ga,262820,264597,3,ga,663,330
58,sub-013,1,aph40Hz,no_stimulus,265820,0,0,NaN,0,330
59,sub-013,1,aph40Hz,LE_highF3_RE_amb,268820,270580,2,da,622,90
60,sub-013,1,aph40Hz,no_stimulus,271820,0,0,NaN,0,90
61,sub-013,1,aph40Hz,LE_lowF3_RE_amb,274820,276597,3,ga,976,330
62,sub-013,1,aph40Hz,LE_lowF3_RE_amb,277820,279576,3,ga,712,30
63,sub-013,1,aph40Hz,no_stimulus,280820,0,0,NaN,0,30
64,sub-013,1,aph40Hz,LE_highF3_RE_amb,283820,285576,2,da,806,30
65,sub-013,1,aph40Hz,no_stimulus,286819,0,0,NaN,0,30
66,sub-013,1,aph40Hz,LE_highF3_RE_amb,289819,291597,2,da,77,330
67,sub-013,1,aph40Hz,LE_lowF3_RE_amb,292819,294576,2,da,530,30
68,sub-013,1,aph40Hz,no_stimulus,295819,0,0,NaN,0,30
69,sub-013,1,aph40Hz,LE_highF3_RE_amb,298819,300592,2,da,634,270
70,sub-013,1,aph40Hz,LE_lowF3_RE_ga,301819,303588,3,ga,682,210
71,sub-013,1,aph40Hz,LE_highF3_RE_amb,304819,306584,2,da,399,150
72,sub-013,1,aph40Hz,LE_highF3_RE_amb,307819,309576,2,da,600,30
73,sub-013,1,aph40Hz,no_stimulus,310819,0,0,NaN,0,30
74,sub-013,1,aph40Hz,LE_lowF3_RE_amb,313819,315576,3,ga,896,30
75,sub-013,1,aph40Hz,LE_highF3_RE_amb,316819,318596,2,da,579,330
76,sub-013,1,aph40Hz,LE_lowF3_RE_amb,319819,321580,3,ga,911,90
77,sub-013,1,aph40Hz,LE_highF3_RE_da,322819,324596,2,da,457,330
78,sub-013,1,aph40Hz,no_stimulus,325819,0,0,NaN,0,330
79,sub-013,1,aph40Hz,LE_highF3_RE_amb,328819,330588,2,da,910,210
80,sub-013,1,aph40Hz,no_stimulus,331819,0,0,NaN,0,210
81,sub-013,1,aph40Hz,LE_lowF3_RE_amb,334819,336588,3,ga,725,210
82,sub-013,1,aph40Hz,no_stimulus,337818,0,0,NaN,0,210
83,sub-013,1,aph40Hz,LE_lowF3_RE_amb,340818,342579,3,ga,973,90
84,sub-013,1,aph40Hz,LE_lowF3_RE_amb,343818,345584,2,da,720,150
85,sub-013,1,aph40Hz,LE_lowF3_RE_ga,346818,348588,3,ga,820,210
86,sub-013,1,aph40Hz,no_stimulus,349818,0,0,NaN,0,210
87,sub-013,1,aph40Hz,LE_lowF3_RE_amb,352818,354592,3,ga,798,270
88,sub-013,1,aph40Hz,LE_highF3_RE_amb,355818,357579,2,da,456,90
89,sub-013,1,aph40Hz,LE_lowF3_RE_ga,358818,360579,3,ga,622,90
90,sub-013,1,aph40Hz,no_stimulus,361818,0,0,NaN,0,90
91,sub-013,1,aph40Hz,LE_lowF3_RE_amb,364818,366583,3,ga,702,150
92,sub-013,1,aph40Hz,no_stimulus,367818,0,0,NaN,0,150
93,sub-013,1,aph40Hz,LE_highF3_RE_amb,370818,372575,3,ga,793,30
94,sub-013,1,aph40Hz,LE_highF3_RE_da,373818,375596,2,da,577,330
95,sub-013,1,aph40Hz,LE_lowF3_RE_amb,376818,378583,3,ga,681,150
96,sub-013,1,aph40Hz,no_stimulus,379818,0,0,NaN,0,150
97,sub-013,1,aph40Hz,LE_highF3_RE_amb,382818,384596,2,da,686,330
98,sub-013,1,aph40Hz,LE_lowF3_RE_ga,385818,387591,3,ga,583,270
99,sub-013,1,aph40Hz,LE_highF3_RE_amb,388818,390591,2,da,613,270
100,sub-013,1,aph40Hz,LE_lowF3_RE_amb,391817,393591,0,NaN,0,270
101,sub-013,1,aph40Hz,no_stimulus,394817,0,0,NaN,0,270
102,sub-013,1,aph40Hz,LE_highF3_RE_amb,397817,399583,3,ga,568,150
103,sub-013,1,aph40Hz,LE_highF3_RE_da,400817,402579,2,da,577,90
104,sub-013,1,aph40Hz,LE_highF3_RE_da,403817,405591,3,ga,741,270
105,sub-013,1,aph40Hz,no_stimulus,406817,0,0,NaN,0,270
106,sub-013,1,aph40Hz,LE_lowF3_RE_amb,409817,411595,3,ga,968,330
107,sub-013,1,aph40Hz,LE_highF3_RE_da,412817,414587,0,NaN,0,210
108,sub-013,1,aph40Hz,LE_highF3_RE_amb,415817,417595,2,da,740,330
109,sub-013,1,aph40Hz,LE_lowF3_RE_amb,418817,420595,2,da,478,330
110,sub-013,1,aph40Hz,no_stimulus,421817,0,0,NaN,0,330
111,sub-013,1,aph40Hz,LE_highF3_RE_amb,424817,426587,2,da,542,210
112,sub-013,1,aph40Hz,LE_lowF3_RE_ga,427817,429595,2,da,1049,330
113,sub-013,1,aph40Hz,no_stimulus,430817,0,0,NaN,0,330
114,sub-013,1,aph40Hz,LE_highF3_RE_amb,433817,435578,2,da,737,90
115,sub-013,1,aph40Hz,no_stimulus,436817,0,0,NaN,0,90
116,sub-013,1,aph40Hz,LE_lowF3_RE_amb,439817,441587,3,ga,696,210
117,sub-013,1,aph40Hz,LE_highF3_RE_amb,442816,444591,2,da,670,270
118,sub-013,1,aph40Hz,LE_lowF3_RE_ga,445816,447582,3,ga,781,150
119,sub-013,1,aph40Hz,LE_lowF3_RE_amb,448816,450591,2,da,937,270
120,sub-013,1,aph40Hz,no_stimulus,451816,0,0,NaN,0,270
121,sub-013,1,aph40Hz,LE_lowF3_RE_amb,454816,456574,3,ga,762,30
122,sub-013,1,aph40Hz,LE_lowF3_RE_ga,457816,459574,3,ga,622,30
123,sub-013,1,aph40Hz,no_stimulus,460816,0,0,NaN,0,30
124,sub-013,1,aph40Hz,LE_highF3_RE_amb,463816,465578,0,NaN,0,90
125,sub-013,1,aph40Hz,LE_highF3_RE_da,466816,468582,2,da,566,150
126,sub-013,1,aph40Hz,LE_lowF3_RE_ga,469816,471578,3,ga,683,90
127,sub-013,1,aph40Hz,no_stimulus,472816,0,0,NaN,0,90
128,sub-013,1,aph40Hz,no_stimulus,475816,0,0,NaN,0,90
1,sub-013,2,Sham,no_stimulus,66025,0,0,NaN,0,0
2,sub-013,2,Sham,no_stimulus,69025,0,0,NaN,0,0
3,sub-013,2,Sham,LE_highF3_RE_da,72025,73780,2,da,904,30
4,sub-013,2,Sham,LE_lowF3_RE_ga,75025,76801,3,ga,527,330
5,sub-013,2,Sham,no_stimulus,78025,0,0,NaN,0,330
6,sub-013,2,Sham,LE_lowF3_RE_amb,81025,82788,3,ga,978,150
7,sub-013,2,Sham,LE_lowF3_RE_ga,84025,85780,3,ga,685,30
8,sub-013,2,Sham,no_stimulus,87025,0,0,NaN,0,30
9,sub-013,2,Sham,LE_highF3_RE_amb,90025,91780,2,da,620,30
10,sub-013,2,Sham,LE_lowF3_RE_ga,93025,94801,3,ga,710,330
11,sub-013,2,Sham,LE_lowF3_RE_amb,96025,97780,3,ga,956,30
12,sub-013,2,Sham,no_stimulus,99025,0,0,NaN,0,30
13,sub-013,2,Sham,LE_lowF3_RE_amb,102025,103784,0,NaN,0,90
14,sub-013,2,Sham,no_stimulus,105025,0,0,NaN,0,90
15,sub-013,2,Sham,LE_highF3_RE_amb,108025,109788,3,ga,732,150
16,sub-013,2,Sham,no_stimulus,111024,0,0,NaN,0,150
17,sub-013,2,Sham,LE_lowF3_RE_amb,114024,115792,2,da,833,210
18,sub-013,2,Sham,LE_highF3_RE_da,117024,118780,2,da,741,30
19,sub-013,2,Sham,LE_lowF3_RE_amb,120024,121800,0,NaN,0,330
20,sub-013,2,Sham,no_stimulus,123024,0,0,NaN,0,330
21,sub-013,2,Sham,LE_highF3_RE_amb,126024,127788,2,da,549,150
22,sub-013,2,Sham,LE_highF3_RE_da,129024,130788,2,da,558,150
23,sub-013,2,Sham,no_stimulus,132024,0,0,NaN,0,150
24,sub-013,2,Sham,LE_highF3_RE_amb,135024,136784,2,da,993,90
25,sub-013,2,Sham,LE_lowF3_RE_ga,138024,139792,3,ga,658,210
26,sub-013,2,Sham,no_stimulus,141024,0,0,NaN,0,210
27,sub-013,2,Sham,LE_highF3_RE_amb,144024,145779,2,da,748,30
28,sub-013,2,Sham,LE_highF3_RE_amb,147024,148788,2,da,537,150
29,sub-013,2,Sham,LE_lowF3_RE_ga,150024,151788,3,ga,944,150
30,sub-013,2,Sham,LE_highF3_RE_amb,153024,154779,2,da,623,30
31,sub-013,2,Sham,no_stimulus,156024,0,0,NaN,0,30
32,sub-013,2,Sham,LE_highF3_RE_amb,159024,160791,2,da,728,210
33,sub-013,2,Sham,LE_lowF3_RE_ga,162024,163791,3,ga,888,210
34,sub-013,2,Sham,no_stimulus,165023,0,0,NaN,0,210
35,sub-013,2,Sham,LE_highF3_RE_amb,168023,169800,0,NaN,0,330
36,sub-013,2,Sham,LE_highF3_RE_da,171023,172791,2,da,614,210
37,sub-013,2,Sham,no_stimulus,174023,0,0,NaN,0,210
38,sub-013,2,Sham,LE_lowF3_RE_amb,177023,178795,2,da,495,270
39,sub-013,2,Sham,LE_highF3_RE_amb,180023,181795,2,da,484,270
40,sub-013,2,Sham,LE_lowF3_RE_ga,183023,184787,3,ga,569,150
41,sub-013,2,Sham,no_stimulus,186023,0,0,NaN,0,150
42,sub-013,2,Sham,LE_lowF3_RE_amb,189023,190795,2,da,1025,270
43,sub-013,2,Sham,LE_lowF3_RE_amb,192023,193783,3,ga,609,90
44,sub-013,2,Sham,LE_highF3_RE_amb,195023,196783,2,da,667,90
45,sub-013,2,Sham,LE_highF3_RE_da,198023,199783,2,da,707,90
46,sub-013,2,Sham,LE_highF3_RE_amb,201023,202795,0,NaN,0,270
47,sub-013,2,Sham,no_stimulus,204023,0,0,NaN,0,270
48,sub-013,2,Sham,LE_highF3_RE_amb,207023,208795,2,da,1040,270
49,sub-013,2,Sham,no_stimulus,210023,0,0,NaN,0,270
50,sub-013,2,Sham,LE_lowF3_RE_amb,213023,214783,3,ga,1146,90
51,sub-013,2,Sham,LE_lowF3_RE_ga,216022,217783,3,ga,795,90
52,sub-013,2,Sham,no_stimulus,219022,0,0,NaN,0,90
53,sub-013,2,Sham,LE_highF3_RE_amb,222022,223778,0,NaN,0,30
54,sub-013,2,Sham,LE_highF3_RE_da,225022,226799,2,da,680,330
55,sub-013,2,Sham,no_stimulus,228022,0,0,NaN,0,330
56,sub-013,2,Sham,LE_lowF3_RE_amb,231022,232799,3,ga,945,330
57,sub-013,2,Sham,no_stimulus,234022,0,0,NaN,0,330
58,sub-013,2,Sham,LE_highF3_RE_amb,237022,238791,2,da,627,210
59,sub-013,2,Sham,LE_highF3_RE_amb,240022,241782,2,da,792,90
60,sub-013,2,Sham,no_stimulus,243022,0,0,NaN,0,90
61,sub-013,2,Sham,LE_highF3_RE_amb,246022,247795,2,da,1118,270
62,sub-013,2,Sham,LE_highF3_RE_da,249022,250799,2,da,782,330
63,sub-013,2,Sham,LE_lowF3_RE_amb,252022,253791,2,da,879,210
64,sub-013,2,Sham,LE_highF3_RE_amb,255022,256786,2,da,735,150
65,sub-013,2,Sham,no_stimulus,258022,0,0,NaN,0,150
66,sub-013,2,Sham,LE_lowF3_RE_amb,261022,262795,0,NaN,0,270
67,sub-013,2,Sham,LE_highF3_RE_da,264022,265778,2,da,620,30
68,sub-013,2,Sham,no_stimulus,267021,0,0,NaN,0,30
69,sub-013,2,Sham,LE_lowF3_RE_amb,270021,271782,0,NaN,0,90
70,sub-013,2,Sham,LE_lowF3_RE_ga,273021,274782,3,ga,645,90
71,sub-013,2,Sham,LE_lowF3_RE_amb,276021,277794,3,ga,478,270
72,sub-013,2,Sham,no_stimulus,279021,0,0,NaN,0,270
73,sub-013,2,Sham,LE_highF3_RE_amb,282021,283790,2,da,768,210
74,sub-013,2,Sham,LE_lowF3_RE_amb,285021,286790,2,da,770,210
75,sub-013,2,Sham,LE_lowF3_RE_ga,288021,289794,0,NaN,0,270
76,sub-013,2,Sham,no_stimulus,291021,0,0,NaN,0,270
77,sub-013,2,Sham,LE_lowF3_RE_amb,294021,295786,3,ga,899,150
78,sub-013,2,Sham,LE_lowF3_RE_ga,297021,298794,3,ga,755,270
79,sub-013,2,Sham,no_stimulus,300021,0,0,NaN,0,270
80,sub-013,2,Sham,LE_lowF3_RE_amb,303021,304786,3,ga,1126,150
81,sub-013,2,Sham,no_stimulus,306021,0,0,NaN,0,150
82,sub-013,2,Sham,LE_highF3_RE_amb,309021,310798,0,NaN,0,330
83,sub-013,2,Sham,LE_highF3_RE_amb,312021,313790,2,da,646,210
84,sub-013,2,Sham,LE_lowF3_RE_amb,315021,316777,3,ga,1136,30
85,sub-013,2,Sham,LE_lowF3_RE_ga,318020,319798,3,ga,1120,330
86,sub-013,2,Sham,LE_highF3_RE_amb,321020,322798,2,da,648,330
87,sub-013,2,Sham,no_stimulus,324020,0,0,NaN,0,330
88,sub-013,2,Sham,LE_lowF3_RE_amb,327020,328777,2,da,817,30
89,sub-013,2,Sham,no_stimulus,330020,0,0,NaN,0,30
90,sub-013,2,Sham,LE_highF3_RE_amb,333020,334781,2,da,858,90
91,sub-013,2,Sham,LE_highF3_RE_da,336020,337794,0,NaN,0,270
92,sub-013,2,Sham,LE_lowF3_RE_amb,339020,340785,0,NaN,0,150
93,sub-013,2,Sham,no_stimulus,342020,0,0,NaN,0,150
94,sub-013,2,Sham,LE_lowF3_RE_amb,345020,346798,0,NaN,0,330
95,sub-013,2,Sham,no_stimulus,348020,0,0,NaN,0,330
96,sub-013,2,Sham,LE_lowF3_RE_amb,351020,352789,3,ga,838,210
97,sub-013,2,Sham,LE_highF3_RE_da,354020,355794,2,da,826,270
98,sub-013,2,Sham,no_stimulus,357020,0,0,NaN,0,270
99,sub-013,2,Sham,LE_lowF3_RE_amb,360020,361777,3,ga,862,30
100,sub-013,2,Sham,LE_highF3_RE_da,363020,364781,2,da,735,90
101,sub-013,2,Sham,no_stimulus,366019,0,0,NaN,0,90
102,sub-013,2,Sham,LE_lowF3_RE_amb,369020,370798,0,NaN,0,330
103,sub-013,2,Sham,LE_lowF3_RE_amb,372019,373793,3,ga,815,270
104,sub-013,2,Sham,LE_highF3_RE_amb,375019,376797,3,ga,706,330
105,sub-013,2,Sham,no_stimulus,378019,0,0,NaN,0,330
106,sub-013,2,Sham,LE_highF3_RE_amb,381019,382785,2,da,955,150
107,sub-013,2,Sham,no_stimulus,384019,0,0,NaN,0,150
108,sub-013,2,Sham,LE_highF3_RE_amb,387019,388797,2,da,1062,330
109,sub-013,2,Sham,no_stimulus,390019,0,0,NaN,0,330
110,sub-013,2,Sham,LE_lowF3_RE_amb,393019,394776,2,da,789,30
111,sub-013,2,Sham,LE_highF3_RE_da,396019,397785,2,da,1080,150
112,sub-013,2,Sham,no_stimulus,399019,0,0,NaN,0,150
113,sub-013,2,Sham,LE_highF3_RE_amb,402019,403781,2,da,876,90
114,sub-013,2,Sham,LE_lowF3_RE_amb,405019,406785,2,da,582,150
115,sub-013,2,Sham,LE_lowF3_RE_amb,408019,409780,3,ga,825,90
116,sub-013,2,Sham,LE_highF3_RE_amb,411019,412789,0,NaN,0,210
117,sub-013,2,Sham,LE_lowF3_RE_ga,414019,415776,0,NaN,0,30
118,sub-013,2,Sham,no_stimulus,417019,0,0,NaN,0,30
119,sub-013,2,Sham,LE_lowF3_RE_amb,420019,421789,2,da,682,210
120,sub-013,2,Sham,LE_lowF3_RE_amb,423018,424797,0,NaN,0,330
121,sub-013,2,Sham,no_stimulus,426018,0,0,NaN,0,330
122,sub-013,2,Sham,LE_highF3_RE_amb,429018,430793,0,NaN,0,270
123,sub-013,2,Sham,LE_highF3_RE_da,432018,433788,2,da,871,210
124,sub-013,2,Sham,LE_highF3_RE_amb,435018,436776,2,da,699,30
125,sub-013,2,Sham,LE_lowF3_RE_ga,438018,439793,2,da,493,270
126,sub-013,2,Sham,LE_highF3_RE_da,441018,442784,2,da,729,150
127,sub-013,2,Sham,no_stimulus,444018,0,0,NaN,0,150
128,sub-013,2,Sham,no_stimulus,447018,0,0,NaN,0,150
1,sub-013,3,iph40Hz,no_stimulus,44063,0,0,NaN,0,0
2,sub-013,3,iph40Hz,no_stimulus,47063,0,0,NaN,0,0
3,sub-013,3,iph40Hz,LE_lowF3_RE_ga,50062,51817,3,ga,1161,30
4,sub-013,3,iph40Hz,LE_highF3_RE_da,53062,54826,2,da,579,150
5,sub-013,3,iph40Hz,LE_highF3_RE_amb,56062,57826,2,da,837,150
6,sub-013,3,iph40Hz,LE_highF3_RE_amb,59062,60830,2,da,797,210
7,sub-013,3,iph40Hz,LE_highF3_RE_da,62062,63830,2,da,789,210
8,sub-013,3,iph40Hz,no_stimulus,65062,0,0,NaN,0,210
9,sub-013,3,iph40Hz,LE_highF3_RE_amb,68062,69830,2,da,747,210
10,sub-013,3,iph40Hz,no_stimulus,71062,0,0,NaN,0,210
11,sub-013,3,iph40Hz,LE_lowF3_RE_amb,74062,75834,2,da,1038,270
12,sub-013,3,iph40Hz,LE_lowF3_RE_amb,77062,78830,3,ga,624,210
13,sub-013,3,iph40Hz,no_stimulus,80062,0,0,NaN,0,210
14,sub-013,3,iph40Hz,LE_lowF3_RE_amb,83062,84830,3,ga,1078,210
15,sub-013,3,iph40Hz,LE_highF3_RE_da,86062,87817,2,da,760,30
16,sub-013,3,iph40Hz,LE_highF3_RE_amb,89062,90834,2,da,757,270
17,sub-013,3,iph40Hz,no_stimulus,92062,0,0,NaN,0,270
18,sub-013,3,iph40Hz,LE_lowF3_RE_amb,95062,96817,3,ga,834,30
19,sub-013,3,iph40Hz,no_stimulus,98062,0,0,NaN,0,30
20,sub-013,3,iph40Hz,LE_lowF3_RE_amb,101061,102821,3,ga,832,90
21,sub-013,3,iph40Hz,no_stimulus,104061,0,0,NaN,0,90
22,sub-013,3,iph40Hz,LE_highF3_RE_amb,107061,108817,0,NaN,0,30
23,sub-013,3,iph40Hz,LE_highF3_RE_amb,110061,111821,0,NaN,0,90
24,sub-013,3,iph40Hz,LE_lowF3_RE_ga,113061,114821,3,ga,761,90
25,sub-013,3,iph40Hz,no_stimulus,116061,0,0,NaN,0,90
26,sub-013,3,iph40Hz,LE_lowF3_RE_amb,119061,120821,3,ga,800,90
27,sub-013,3,iph40Hz,no_stimulus,122061,0,0,NaN,0,90
28,sub-013,3,iph40Hz,LE_lowF3_RE_amb,125061,126837,0,NaN,0,330
29,sub-013,3,iph40Hz,LE_lowF3_RE_ga,128061,129837,3,ga,628,330
30,sub-013,3,iph40Hz,no_stimulus,131061,0,0,NaN,0,330
31,sub-013,3,iph40Hz,LE_highF3_RE_amb,134061,135833,0,NaN,0,270
32,sub-013,3,iph40Hz,LE_highF3_RE_amb,137061,138837,2,da,666,330
33,sub-013,3,iph40Hz,LE_lowF3_RE_ga,140061,141816,3,ga,603,30
34,sub-013,3,iph40Hz,LE_highF3_RE_amb,143061,144829,2,da,707,210
35,sub-013,3,iph40Hz,no_stimulus,146061,0,0,NaN,0,210
36,sub-013,3,iph40Hz,LE_lowF3_RE_amb,149061,150833,0,NaN,0,270
37,sub-013,3,iph40Hz,LE_highF3_RE_amb,152060,153820,2,da,654,90
38,sub-013,3,iph40Hz,LE_lowF3_RE_amb,155061,156837,2,da,517,330
39,sub-013,3,iph40Hz,no_stimulus,158060,0,0,NaN,0,330
40,sub-013,3,iph40Hz,LE_lowF3_RE_amb,161060,162825,3,ga,931,150
41,sub-013,3,iph40Hz,LE_lowF3_RE_ga,164060,165829,3,ga,665,210
42,sub-013,3,iph40Hz,LE_highF3_RE_amb,167060,168824,2,da,935,150
43,sub-013,3,iph40Hz,LE_lowF3_RE_amb,170060,171833,2,da,912,270
44,sub-013,3,iph40Hz,no_stimulus,173060,0,0,NaN,0,270
45,sub-013,3,iph40Hz,LE_highF3_RE_amb,176060,177824,0,NaN,0,150
46,sub-013,3,iph40Hz,LE_lowF3_RE_ga,179060,180833,3,ga,635,270
47,sub-013,3,iph40Hz,LE_lowF3_RE_amb,182060,183816,3,ga,819,30
48,sub-013,3,iph40Hz,LE_lowF3_RE_amb,185060,186824,3,ga,809,150
49,sub-013,3,iph40Hz,LE_highF3_RE_da,188060,189832,2,da,707,270
50,sub-013,3,iph40Hz,no_stimulus,191060,0,0,NaN,0,270
51,sub-013,3,iph40Hz,LE_highF3_RE_amb,194060,195837,0,NaN,0,330
52,sub-013,3,iph40Hz,LE_highF3_RE_da,197060,198816,2,da,1022,30
53,sub-013,3,iph40Hz,no_stimulus,200060,0,0,NaN,0,30
54,sub-013,3,iph40Hz,LE_highF3_RE_amb,203060,204816,0,NaN,0,30
55,sub-013,3,iph40Hz,LE_highF3_RE_da,206060,207824,0,NaN,0,150
56,sub-013,3,iph40Hz,no_stimulus,209059,0,0,NaN,0,150
57,sub-013,3,iph40Hz,LE_lowF3_RE_amb,212059,213828,0,NaN,0,210
58,sub-013,3,iph40Hz,no_stimulus,215059,0,0,NaN,0,210
59,sub-013,3,iph40Hz,LE_lowF3_RE_amb,218059,219816,3,ga,1005,30
60,sub-013,3,iph40Hz,no_stimulus,221059,0,0,NaN,0,30
61,sub-013,3,iph40Hz,LE_lowF3_RE_amb,224059,225824,0,NaN,0,150
62,sub-013,3,iph40Hz,LE_highF3_RE_amb,227059,228815,0,NaN,0,30
63,sub-013,3,iph40Hz,LE_lowF3_RE_ga,230059,231832,3,ga,1054,270
64,sub-013,3,iph40Hz,no_stimulus,233059,0,0,NaN,0,270
65,sub-013,3,iph40Hz,LE_highF3_RE_amb,236059,237828,2,da,985,210
66,sub-013,3,iph40Hz,LE_highF3_RE_amb,239059,240815,0,NaN,0,30
67,sub-013,3,iph40Hz,LE_lowF3_RE_ga,242059,243815,0,NaN,0,30
68,sub-013,3,iph40Hz,no_stimulus,245059,0,0,NaN,0,30
69,sub-013,3,iph40Hz,LE_highF3_RE_amb,248059,249819,0,NaN,0,90
70,sub-013,3,iph40Hz,no_stimulus,251059,0,0,NaN,0,90
71,sub-013,3,iph40Hz,LE_lowF3_RE_amb,254059,255828,0,NaN,0,210
72,sub-013,3,iph40Hz,LE_lowF3_RE_ga,257058,258823,3,ga,1104,150
73,sub-013,3,iph40Hz,LE_lowF3_RE_amb,260058,261832,3,ga,701,270
74,sub-013,3,iph40Hz,no_stimulus,263058,0,0,NaN,0,270
75,sub-013,3,iph40Hz,LE_highF3_RE_amb,266058,267827,2,da,767,210
76,sub-013,3,iph40Hz,no_stimulus,269058,0,0,NaN,0,210
77,sub-013,3,iph40Hz,LE_highF3_RE_amb,272058,273819,2,da,700,90
78,sub-013,3,iph40Hz,LE_highF3_RE_da,275058,276831,2,da,688,270
79,sub-013,3,iph40Hz,no_stimulus,278058,0,0,NaN,0,270
80,sub-013,3,iph40Hz,LE_highF3_RE_amb,281058,282823,0,NaN,0,150
81,sub-013,3,iph40Hz,LE_lowF3_RE_ga,284058,285827,0,NaN,0,210
82,sub-013,3,iph40Hz,LE_highF3_RE_amb,287058,288836,0,NaN,0,330
83,sub-013,3,iph40Hz,no_stimulus,290058,0,0,NaN,0,330
84,sub-013,3,iph40Hz,LE_lowF3_RE_amb,293058,294831,2,da,998,270
85,sub-013,3,iph40Hz,no_stimulus,296058,0,0,NaN,0,270
86,sub-013,3,iph40Hz,LE_highF3_RE_amb,299058,300831,0,NaN,0,270
87,sub-013,3,iph40Hz,LE_highF3_RE_da,302058,303835,2,da,567,330
88,sub-013,3,iph40Hz,LE_lowF3_RE_amb,305058,306823,0,NaN,0,150
89,sub-013,3,iph40Hz,no_stimulus,308057,0,0,NaN,0,150
90,sub-013,3,iph40Hz,LE_lowF3_RE_amb,311057,312814,3,ga,772,30
91,sub-013,3,iph40Hz,LE_lowF3_RE_ga,314057,315819,0,NaN,0,90
92,sub-013,3,iph40Hz,no_stimulus,317057,0,0,NaN,0,90
93,sub-013,3,iph40Hz,LE_highF3_RE_amb,320057,321831,0,NaN,0,270
94,sub-013,3,iph40Hz,LE_lowF3_RE_amb,323057,324819,0,NaN,0,90
95,sub-013,3,iph40Hz,LE_lowF3_RE_ga,326057,327823,0,NaN,0,150
96,sub-013,3,iph40Hz,no_stimulus,329057,0,0,NaN,0,150
97,sub-013,3,iph40Hz,LE_highF3_RE_amb,332057,333818,2,da,740,90
98,sub-013,3,iph40Hz,LE_lowF3_RE_amb,335057,336818,0,NaN,0,90
99,sub-013,3,iph40Hz,no_stimulus,338057,0,0,NaN,0,90
100,sub-013,3,iph40Hz,LE_highF3_RE_amb,341057,342835,2,da,590,330
101,sub-013,3,iph40Hz,LE_highF3_RE_da,344057,345818,2,da,494,90
102,sub-013,3,iph40Hz,no_stimulus,347057,0,0,NaN,0,90
103,sub-013,3,iph40Hz,LE_lowF3_RE_amb,350057,351822,2,da,1157,150
104,sub-013,3,iph40Hz,LE_highF3_RE_da,353057,354826,2,da,775,210
105,sub-013,3,iph40Hz,LE_lowF3_RE_amb,356057,357814,2,da,1033,30
106,sub-013,3,iph40Hz,LE_highF3_RE_amb,359057,360831,0,NaN,0,270
107,sub-013,3,iph40Hz,no_stimulus,362056,0,0,NaN,0,270
108,sub-013,3,iph40Hz,LE_highF3_RE_amb,365056,366822,2,da,630,150
109,sub-013,3,iph40Hz,LE_highF3_RE_da,368056,369835,2,da,573,330
110,sub-013,3,iph40Hz,no_stimulus,371056,0,0,NaN,0,330
111,sub-013,3,iph40Hz,LE_lowF3_RE_amb,374056,375818,2,da,868,90
112,sub-013,3,iph40Hz,LE_highF3_RE_da,377056,378822,2,da,638,150
113,sub-013,3,iph40Hz,LE_lowF3_RE_ga,380056,381834,3,ga,809,330
114,sub-013,3,iph40Hz,no_stimulus,383056,0,0,NaN,0,330
115,sub-013,3,iph40Hz,LE_lowF3_RE_amb,386056,387834,3,ga,837,330
116,sub-013,3,iph40Hz,no_stimulus,389056,0,0,NaN,0,330
117,sub-013,3,iph40Hz,LE_highF3_RE_amb,392056,393814,0,NaN,0,30
118,sub-013,3,iph40Hz,LE_lowF3_RE_amb,395056,396826,2,da,721,210
119,sub-013,3,iph40Hz,LE_lowF3_RE_amb,398056,399834,0,NaN,0,330
120,sub-013,3,iph40Hz,LE_highF3_RE_da,401056,402818,0,NaN,0,90
121,sub-013,3,iph40Hz,no_stimulus,404056,0,0,NaN,0,90
122,sub-013,3,iph40Hz,LE_highF3_RE_amb,407056,408834,0,NaN,0,330
123,sub-013,3,iph40Hz,no_stimulus,410056,0,0,NaN,0,330
124,sub-013,3,iph40Hz,LE_lowF3_RE_amb,413055,414834,0,NaN,0,330
125,sub-013,3,iph40Hz,LE_lowF3_RE_ga,416055,417830,0,NaN,0,270
126,sub-013,3,iph40Hz,LE_highF3_RE_da,419055,420817,0,NaN,0,90
127,sub-013,3,iph40Hz,no_stimulus,422055,0,0,NaN,0,90
128,sub-013,3,iph40Hz,no_stimulus,425055,0,0,NaN,0,90
1,sub-013,4,Sham,no_stimulus,58119,0,0,NaN,0,0
2,sub-013,4,Sham,no_stimulus,61118,0,0,NaN,0,0
3,sub-013,4,Sham,LE_highF3_RE_da,64118,65873,2,da,735,30
4,sub-013,4,Sham,LE_lowF3_RE_ga,67118,68882,3,ga,920,150
5,sub-013,4,Sham,LE_lowF3_RE_amb,70118,71882,2,da,545,150
6,sub-013,4,Sham,LE_highF3_RE_amb,73118,74890,2,da,802,270
7,sub-013,4,Sham,no_stimulus,76118,0,0,NaN,0,270
8,sub-013,4,Sham,LE_highF3_RE_amb,79118,80873,2,da,726,30
9,sub-013,4,Sham,LE_highF3_RE_da,82118,83873,2,da,732,30
10,sub-013,4,Sham,no_stimulus,85118,0,0,NaN,0,30
11,sub-013,4,Sham,LE_highF3_RE_amb,88118,89886,2,da,886,210
12,sub-013,4,Sham,no_stimulus,91118,0,0,NaN,0,210
13,sub-013,4,Sham,LE_lowF3_RE_amb,94118,95873,2,da,862,30
14,sub-013,4,Sham,LE_lowF3_RE_ga,97118,98885,2,da,485,210
15,sub-013,4,Sham,LE_highF3_RE_amb,100118,101877,2,da,718,90
16,sub-013,4,Sham,no_stimulus,103118,0,0,NaN,0,90
17,sub-013,4,Sham,LE_highF3_RE_amb,106118,107889,2,da,822,270
18,sub-013,4,Sham,no_stimulus,109118,0,0,NaN,0,270
19,sub-013,4,Sham,LE_highF3_RE_amb,112117,113894,2,da,676,330
20,sub-013,4,Sham,no_stimulus,115117,0,0,NaN,0,330
21,sub-013,4,Sham,LE_lowF3_RE_amb,118117,119873,0,NaN,0,30
22,sub-013,4,Sham,LE_highF3_RE_amb,121117,122889,2,da,644,270
23,sub-013,4,Sham,LE_lowF3_RE_ga,124117,125885,3,ga,655,210
24,sub-013,4,Sham,no_stimulus,127117,0,0,NaN,0,210
25,sub-013,4,Sham,LE_lowF3_RE_amb,130117,131893,3,ga,836,330
26,sub-013,4,Sham,no_stimulus,133117,0,0,NaN,0,330
27,sub-013,4,Sham,LE_highF3_RE_amb,136117,137885,0,NaN,0,210
28,sub-013,4,Sham,LE_lowF3_RE_amb,139117,140881,2,da,520,150
29,sub-013,4,Sham,LE_highF3_RE_amb,142117,143885,2,da,532,210
30,sub-013,4,Sham,LE_lowF3_RE_ga,145117,146881,3,ga,765,150
31,sub-013,4,Sham,no_stimulus,148117,0,0,NaN,0,150
32,sub-013,4,Sham,LE_highF3_RE_amb,151117,152877,2,da,781,90
33,sub-013,4,Sham,LE_lowF3_RE_amb,154117,155893,0,NaN,0,330
34,sub-013,4,Sham,LE_lowF3_RE_amb,157117,158872,3,ga,1046,30
35,sub-013,4,Sham,LE_highF3_RE_da,160117,161872,2,da,899,30
36,sub-013,4,Sham,no_stimulus,163116,0,0,NaN,0,30
37,sub-013,4,Sham,LE_lowF3_RE_amb,166116,167876,0,NaN,0,90
38,sub-013,4,Sham,LE_highF3_RE_amb,169116,170881,2,da,508,150
39,sub-013,4,Sham,LE_highF3_RE_da,172116,173876,2,da,629,90
40,sub-013,4,Sham,no_stimulus,175116,0,0,NaN,0,90
41,sub-013,4,Sham,LE_highF3_RE_amb,178116,179885,0,NaN,0,210
42,sub-013,4,Sham,no_stimulus,181116,0,0,NaN,0,210
43,sub-013,4,Sham,LE_lowF3_RE_amb,184116,185880,0,NaN,0,150
44,sub-013,4,Sham,no_stimulus,187116,0,0,NaN,0,150
45,sub-013,4,Sham,LE_highF3_RE_amb,190116,191876,0,NaN,0,90
46,sub-013,4,Sham,LE_highF3_RE_da,193116,194884,2,da,587,210
47,sub-013,4,Sham,no_stimulus,196116,0,0,NaN,0,210
48,sub-013,4,Sham,LE_lowF3_RE_amb,199116,200872,0,NaN,0,30
49,sub-013,4,Sham,LE_highF3_RE_amb,202116,203872,2,da,723,30
50,sub-013,4,Sham,LE_highF3_RE_da,205116,206880,2,da,874,150
51,sub-013,4,Sham,no_stimulus,208116,0,0,NaN,0,150
52,sub-013,4,Sham,LE_lowF3_RE_amb,211116,212888,2,da,766,270
53,sub-013,4,Sham,no_stimulus,214116,0,0,NaN,0,270
54,sub-013,4,Sham,LE_highF3_RE_amb,217115,218880,0,NaN,0,150
55,sub-013,4,Sham,LE_lowF3_RE_ga,220115,221872,3,ga,690,30
56,sub-013,4,Sham,no_stimulus,223115,0,0,NaN,0,30
57,sub-013,4,Sham,LE_highF3_RE_amb,226115,227888,2,da,689,270
58,sub-013,4,Sham,no_stimulus,229115,0,0,NaN,0,270
59,sub-013,4,Sham,LE_highF3_RE_amb,232115,233880,0,NaN,0,150
60,sub-013,4,Sham,no_stimulus,235115,0,0,NaN,0,150
61,sub-013,4,Sham,LE_lowF3_RE_amb,238115,239888,2,da,608,270
62,sub-013,4,Sham,no_stimulus,241115,0,0,NaN,0,270
63,sub-013,4,Sham,LE_highF3_RE_amb,244115,245880,2,da,626,150
64,sub-013,4,Sham,LE_highF3_RE_da,247115,248888,0,NaN,0,270
65,sub-013,4,Sham,no_stimulus,250115,0,0,NaN,0,270
66,sub-013,4,Sham,LE_lowF3_RE_amb,253115,254884,2,da,783,210
67,sub-013,4,Sham,LE_lowF3_RE_amb,256115,257871,0,NaN,0,30
68,sub-013,4,Sham,LE_highF3_RE_da,259115,260884,2,da,1013,210
69,sub-013,4,Sham,no_stimulus,262115,0,0,NaN,0,210
70,sub-013,4,Sham,LE_lowF3_RE_amb,265115,266875,0,NaN,0,90
71,sub-013,4,Sham,LE_highF3_RE_amb,268114,269879,2,da,655,150
72,sub-013,4,Sham,LE_lowF3_RE_amb,271114,272888,2,da,594,270
73,sub-013,4,Sham,no_stimulus,274114,0,0,NaN,0,270
74,sub-013,4,Sham,LE_lowF3_RE_amb,277114,278888,3,ga,608,270
75,sub-013,4,Sham,no_stimulus,280114,0,0,NaN,0,270
76,sub-013,4,Sham,LE_lowF3_RE_amb,283114,284879,0,NaN,0,150
77,sub-013,4,Sham,no_stimulus,286114,0,0,NaN,0,150
78,sub-013,4,Sham,LE_lowF3_RE_amb,289114,290875,0,NaN,0,90
79,sub-013,4,Sham,no_stimulus,292114,0,0,NaN,0,90
80,sub-013,4,Sham,LE_lowF3_RE_amb,295114,296892,0,NaN,0,330
81,sub-013,4,Sham,LE_highF3_RE_amb,298114,299875,2,da,622,90
82,sub-013,4,Sham,LE_lowF3_RE_ga,301114,302875,3,ga,695,90
83,sub-013,4,Sham,no_stimulus,304114,0,0,NaN,0,90
84,sub-013,4,Sham,LE_highF3_RE_amb,307114,308887,0,NaN,0,270
85,sub-013,4,Sham,LE_lowF3_RE_ga,310114,311887,0,NaN,0,270
86,sub-013,4,Sham,LE_highF3_RE_da,313114,314891,0,NaN,0,330
87,sub-013,4,Sham,LE_lowF3_RE_amb,316114,317891,2,da,532,330
88,sub-013,4,Sham,LE_highF3_RE_amb,319114,320891,0,NaN,0,330
89,sub-013,4,Sham,LE_highF3_RE_da,322113,323891,0,NaN,0,330
90,sub-013,4,Sham,no_stimulus,325113,0,0,NaN,0,330
91,sub-013,4,Sham,LE_lowF3_RE_amb,328113,329891,0,NaN,0,330
92,sub-013,4,Sham,LE_lowF3_RE_amb,331113,332875,3,ga,663,90
93,sub-013,4,Sham,LE_lowF3_RE_ga,334113,335870,3,ga,1014,30
94,sub-013,4,Sham,no_stimulus,337113,0,0,NaN,0,30
95,sub-013,4,Sham,LE_highF3_RE_amb,340113,341870,3,ga,1014,30
96,sub-013,4,Sham,no_stimulus,343113,0,0,NaN,0,30
97,sub-013,4,Sham,LE_highF3_RE_amb,346113,347891,0,NaN,0,330
98,sub-013,4,Sham,no_stimulus,349113,0,0,NaN,0,330
99,sub-013,4,Sham,LE_highF3_RE_amb,352113,353874,0,NaN,0,90
100,sub-013,4,Sham,LE_highF3_RE_amb,355113,356891,0,NaN,0,330
101,sub-013,4,Sham,LE_lowF3_RE_ga,358113,359891,0,NaN,0,330
102,sub-013,4,Sham,no_stimulus,361113,0,0,NaN,0,330
103,sub-013,4,Sham,LE_highF3_RE_amb,364113,365870,0,NaN,0,30
104,sub-013,4,Sham,LE_highF3_RE_da,367113,368878,0,NaN,0,150
105,sub-013,4,Sham,no_stimulus,370113,0,0,NaN,0,150
106,sub-013,4,Sham,LE_lowF3_RE_amb,373112,374882,3,ga,794,210
107,sub-013,4,Sham,LE_highF3_RE_da,376112,377887,2,da,681,270
108,sub-013,4,Sham,LE_highF3_RE_amb,379112,380882,2,da,739,210
109,sub-013,4,Sham,LE_lowF3_RE_amb,382112,383882,0,NaN,0,210
110,sub-013,4,Sham,LE_highF3_RE_da,385112,386874,2,da,1162,90
111,sub-013,4,Sham,no_stimulus,388112,0,0,NaN,0,90
112,sub-013,4,Sham,LE_lowF3_RE_amb,391112,392878,2,da,845,150
113,sub-013,4,Sham,LE_lowF3_RE_amb,394112,395882,0,NaN,0,210
114,sub-013,4,Sham,LE_lowF3_RE_ga,397112,398886,0,NaN,0,270
115,sub-013,4,Sham,LE_lowF3_RE_ga,400112,401890,3,ga,643,330
116,sub-013,4,Sham,no_stimulus,403112,0,0,NaN,0,330
117,sub-013,4,Sham,LE_highF3_RE_amb,406112,407890,0,NaN,0,330
118,sub-013,4,Sham,LE_lowF3_RE_amb,409112,410874,3,ga,823,90
119,sub-013,4,Sham,LE_lowF3_RE_amb,412112,413886,0,NaN,0,270
120,sub-013,4,Sham,LE_lowF3_RE_ga,415112,416874,0,NaN,0,90
121,sub-013,4,Sham,no_stimulus,418112,0,0,NaN,0,90
122,sub-013,4,Sham,LE_lowF3_RE_amb,421112,422882,0,NaN,0,210
123,sub-013,4,Sham,LE_lowF3_RE_ga,424112,425878,3,ga,725,150
124,sub-013,4,Sham,LE_highF3_RE_amb,427111,428869,3,ga,1014,30
125,sub-013,4,Sham,LE_highF3_RE_da,430111,431886,3,ga,1019,270
126,sub-013,4,Sham,LE_lowF3_RE_ga,433111,434873,0,NaN,0,90
127,sub-013,4,Sham,no_stimulus,436111,0,0,NaN,0,90
128,sub-013,4,Sham,no_stimulus,439111,0,0,NaN,0,90
1,sub-013,5,iph40Hz,no_stimulus,76006,0,0,NaN,0,0
2,sub-013,5,iph40Hz,no_stimulus,79006,0,0,NaN,0,0
3,sub-013,5,iph40Hz,LE_lowF3_RE_ga,82006,83782,3,ga,822,330
4,sub-013,5,iph40Hz,LE_lowF3_RE_ga,85006,86774,3,ga,506,210
5,sub-013,5,iph40Hz,no_stimulus,88006,0,0,NaN,0,210
6,sub-013,5,iph40Hz,LE_lowF3_RE_amb,91006,92778,3,ga,656,270
7,sub-013,5,iph40Hz,LE_highF3_RE_amb,94006,95765,2,da,522,90
8,sub-013,5,iph40Hz,no_stimulus,97006,0,0,NaN,0,90
9,sub-013,5,iph40Hz,LE_lowF3_RE_amb,100006,101782,3,ga,595,330
10,sub-013,5,iph40Hz,no_stimulus,103006,0,0,NaN,0,330
11,sub-013,5,iph40Hz,LE_highF3_RE_amb,106006,107774,3,ga,676,210
12,sub-013,5,iph40Hz,LE_highF3_RE_amb,109006,110761,0,NaN,0,30
13,sub-013,5,iph40Hz,LE_highF3_RE_da,112006,113778,2,da,523,270
14,sub-013,5,iph40Hz,no_stimulus,115006,0,0,NaN,0,270
15,sub-013,5,iph40Hz,LE_highF3_RE_amb,118006,119782,2,da,708,330
16,sub-013,5,iph40Hz,LE_highF3_RE_da,121006,122777,2,da,684,270
17,sub-013,5,iph40Hz,no_stimulus,124006,0,0,NaN,0,270
18,sub-013,5,iph40Hz,LE_lowF3_RE_amb,127005,128769,3,ga,1026,150
19,sub-013,5,iph40Hz,LE_lowF3_RE_ga,130005,131761,0,NaN,0,30
20,sub-013,5,iph40Hz,LE_lowF3_RE_amb,133005,134765,3,ga,676,90
21,sub-013,5,iph40Hz,no_stimulus,136005,0,0,NaN,0,90
22,sub-013,5,iph40Hz,LE_highF3_RE_amb,139005,140761,2,da,686,30
23,sub-013,5,iph40Hz,LE_lowF3_RE_ga,142005,143781,3,ga,586,330
24,sub-013,5,iph40Hz,no_stimulus,145005,0,0,NaN,0,330
25,sub-013,5,iph40Hz,LE_lowF3_RE_amb,148005,149765,2,da,913,90
26,sub-013,5,iph40Hz,LE_highF3_RE_da,151005,152773,2,da,622,210
27,sub-013,5,iph40Hz,LE_lowF3_RE_amb,154005,155777,2,da,860,270
28,sub-013,5,iph40Hz,no_stimulus,157005,0,0,NaN,0,270
29,sub-013,5,iph40Hz,LE_lowF3_RE_amb,160005,161781,2,da,1135,330
30,sub-013,5,iph40Hz,no_stimulus,163005,0,0,NaN,0,330
31,sub-013,5,iph40Hz,LE_lowF3_RE_amb,166005,167769,3,ga,892,150
32,sub-013,5,iph40Hz,LE_highF3_RE_da,169005,170773,2,da,873,210
33,sub-013,5,iph40Hz,no_stimulus,172005,0,0,NaN,0,210
34,sub-013,5,iph40Hz,LE_highF3_RE_amb,175005,176781,2,da,884,330
35,sub-013,5,iph40Hz,LE_highF3_RE_amb,178004,179769,2,da,851,150
36,sub-013,5,iph40Hz,no_stimulus,181004,0,0,NaN,0,150
37,sub-013,5,iph40Hz,LE_lowF3_RE_amb,184004,185777,2,da,864,270
38,sub-013,5,iph40Hz,LE_lowF3_RE_ga,187004,188773,3,ga,839,210
39,sub-013,5,iph40Hz,no_stimulus,190004,0,0,NaN,0,210
40,sub-013,5,iph40Hz,LE_highF3_RE_amb,193004,194777,2,da,662,270
41,sub-013,5,iph40Hz,LE_highF3_RE_da,196004,197764,2,da,512,90
42,sub-013,5,iph40Hz,no_stimulus,199004,0,0,NaN,0,90
43,sub-013,5,iph40Hz,LE_highF3_RE_amb,202004,203760,2,da,781,30
44,sub-013,5,iph40Hz,LE_highF3_RE_amb,205004,206764,2,da,697,90
45,sub-013,5,iph40Hz,LE_lowF3_RE_ga,208004,209777,3,ga,504,270
46,sub-013,5,iph40Hz,LE_highF3_RE_amb,211004,212772,2,da,449,210
47,sub-013,5,iph40Hz,LE_highF3_RE_amb,214004,215781,2,da,499,330
48,sub-013,5,iph40Hz,LE_lowF3_RE_amb,217004,218768,3,ga,524,150
49,sub-013,5,iph40Hz,LE_lowF3_RE_amb,220004,221772,3,ga,580,210
50,sub-013,5,iph40Hz,LE_lowF3_RE_ga,223003,224764,3,ga,493,90
51,sub-013,5,iph40Hz,LE_lowF3_RE_amb,226003,227776,3,ga,541,270
52,sub-013,5,iph40Hz,no_stimulus,229003,0,0,NaN,0,270
53,sub-013,5,iph40Hz,LE_lowF3_RE_amb,232003,233772,3,ga,654,210
54,sub-013,5,iph40Hz,LE_highF3_RE_amb,235003,236776,2,da,354,270
55,sub-013,5,iph40Hz,no_stimulus,238003,0,0,NaN,0,270
56,sub-013,5,iph40Hz,LE_lowF3_RE_amb,241003,242780,2,da,1102,330
57,sub-013,5,iph40Hz,no_stimulus,244003,0,0,NaN,0,330
58,sub-013,5,iph40Hz,LE_highF3_RE_amb,247003,248764,2,da,545,90
59,sub-013,5,iph40Hz,no_stimulus,250003,0,0,NaN,0,90
60,sub-013,5,iph40Hz,LE_highF3_RE_amb,253003,254776,2,da,519,270
61,sub-013,5,iph40Hz,LE_lowF3_RE_amb,256003,257772,3,ga,501,210
62,sub-013,5,iph40Hz,LE_highF3_RE_da,259003,260780,2,da,777,330
63,sub-013,5,iph40Hz,LE_lowF3_RE_amb,262003,263768,2,da,475,150
64,sub-013,5,iph40Hz,no_stimulus,265003,0,0,NaN,0,150
65,sub-013,5,iph40Hz,LE_highF3_RE_amb,268003,269772,2,da,523,210
66,sub-013,5,iph40Hz,no_stimulus,271003,0,0,NaN,0,210
67,sub-013,5,iph40Hz,LE_highF3_RE_amb,274003,275776,2,da,609,270
68,sub-013,5,iph40Hz,LE_highF3_RE_da,277003,278759,2,da,937,30
69,sub-013,5,iph40Hz,no_stimulus,280003,0,0,NaN,0,30
70,sub-013,5,iph40Hz,LE_highF3_RE_amb,283002,284767,2,da,449,150
71,sub-013,5,iph40Hz,LE_highF3_RE_da,286002,287780,2,da,558,330
72,sub-013,5,iph40Hz,no_stimulus,289002,0,0,NaN,0,330
73,sub-013,5,iph40Hz,LE_lowF3_RE_amb,292002,293776,2,da,957,270
74,sub-013,5,iph40Hz,LE_highF3_RE_da,295002,296759,2,da,626,30
75,sub-013,5,iph40Hz,LE_lowF3_RE_amb,298002,299763,2,da,581,90
76,sub-013,5,iph40Hz,LE_highF3_RE_amb,301002,302776,2,da,614,270
77,sub-013,5,iph40Hz,LE_lowF3_RE_amb,304002,305780,2,da,690,330
78,sub-013,5,iph40Hz,LE_highF3_RE_da,307002,308767,2,da,480,150
79,sub-013,5,iph40Hz,LE_lowF3_RE_ga,310002,311763,3,ga,495,90
80,sub-013,5,iph40Hz,no_stimulus,313002,0,0,NaN,0,90
81,sub-013,5,iph40Hz,LE_highF3_RE_amb,316002,317763,2,da,824,90
82,sub-013,5,iph40Hz,LE_lowF3_RE_ga,319002,320759,3,ga,588,30
83,sub-013,5,iph40Hz,LE_lowF3_RE_amb,322002,323759,3,ga,788,30
84,sub-013,5,iph40Hz,no_stimulus,325002,0,0,NaN,0,30
85,sub-013,5,iph40Hz,LE_highF3_RE_amb,328002,329759,2,da,848,30
86,sub-013,5,iph40Hz,no_stimulus,331002,0,0,NaN,0,30
87,sub-013,5,iph40Hz,LE_lowF3_RE_amb,334001,335758,3,ga,909,30
88,sub-013,5,iph40Hz,no_stimulus,337001,0,0,NaN,0,30
89,sub-013,5,iph40Hz,LE_lowF3_RE_amb,340001,341763,3,ga,750,90
90,sub-013,5,iph40Hz,no_stimulus,343001,0,0,NaN,0,90
91,sub-013,5,iph40Hz,LE_highF3_RE_amb,346001,347767,2,da,635,150
92,sub-013,5,iph40Hz,LE_highF3_RE_amb,349001,350779,2,da,488,330
93,sub-013,5,iph40Hz,LE_lowF3_RE_ga,352001,353767,3,ga,537,150
94,sub-013,5,iph40Hz,no_stimulus,355001,0,0,NaN,0,150
95,sub-013,5,iph40Hz,LE_highF3_RE_amb,358001,359771,2,da,720,210
96,sub-013,5,iph40Hz,LE_highF3_RE_amb,361001,362758,2,da,498,30
97,sub-013,5,iph40Hz,LE_highF3_RE_amb,364001,365766,2,da,815,150
98,sub-013,5,iph40Hz,LE_lowF3_RE_amb,367001,368758,3,ga,639,30
99,sub-013,5,iph40Hz,LE_lowF3_RE_ga,370001,371779,2,da,524,330
100,sub-013,5,iph40Hz,no_stimulus,373001,0,0,NaN,0,330
101,sub-013,5,iph40Hz,LE_lowF3_RE_amb,376001,377758,0,NaN,0,30
102,sub-013,5,iph40Hz,LE_lowF3_RE_ga,379001,380770,3,ga,391,210
103,sub-013,5,iph40Hz,no_stimulus,382000,0,0,NaN,0,210
104,sub-013,5,iph40Hz,LE_lowF3_RE_amb,385000,386762,3,ga,791,90
105,sub-013,5,iph40Hz,LE_highF3_RE_da,388000,389766,2,da,855,150
106,sub-013,5,iph40Hz,no_stimulus,391000,0,0,NaN,0,150
107,sub-013,5,iph40Hz,LE_highF3_RE_amb,394000,395779,0,NaN,0,330
108,sub-013,5,iph40Hz,no_stimulus,397000,0,0,NaN,0,330
109,sub-013,5,iph40Hz,LE_highF3_RE_amb,400000,401762,2,da,653,90
110,sub-013,5,iph40Hz,no_stimulus,403000,0,0,NaN,0,90
111,sub-013,5,iph40Hz,LE_lowF3_RE_amb,406000,407770,3,ga,753,210
112,sub-013,5,iph40Hz,no_stimulus,409000,0,0,NaN,0,210
113,sub-013,5,iph40Hz,LE_lowF3_RE_amb,412000,413766,2,da,909,150
114,sub-013,5,iph40Hz,LE_highF3_RE_amb,415000,416770,2,da,540,210
115,sub-013,5,iph40Hz,LE_lowF3_RE_ga,418000,419774,3,ga,764,270
116,sub-013,5,iph40Hz,no_stimulus,421000,0,0,NaN,0,270
117,sub-013,5,iph40Hz,LE_highF3_RE_amb,424000,425766,2,da,1019,150
118,sub-013,5,iph40Hz,LE_lowF3_RE_ga,427000,428766,3,ga,521,150
119,sub-013,5,iph40Hz,no_stimulus,430000,0,0,NaN,0,150
120,sub-013,5,iph40Hz,LE_lowF3_RE_amb,432999,434770,3,ga,1004,210
121,sub-013,5,iph40Hz,LE_lowF3_RE_amb,435999,437778,0,NaN,0,330
122,sub-013,5,iph40Hz,LE_highF3_RE_da,438999,440761,2,da,568,90
123,sub-013,5,iph40Hz,no_stimulus,441999,0,0,NaN,0,90
124,sub-013,5,iph40Hz,LE_lowF3_RE_amb,444999,446757,3,ga,773,30
125,sub-013,5,iph40Hz,LE_highF3_RE_da,447999,449774,2,da,503,270
126,sub-013,5,iph40Hz,LE_highF3_RE_da,450999,452766,0,NaN,0,150
127,sub-013,5,iph40Hz,no_stimulus,453999,0,0,NaN,0,150
128,sub-013,5,iph40Hz,no_stimulus,456999,0,0,NaN,0,150
1,sub-013,6,Sham,no_stimulus,56490,0,0,NaN,0,0
2,sub-013,6,Sham,no_stimulus,59490,0,0,NaN,0,0
3,sub-013,6,Sham,LE_highF3_RE_da,62490,64261,2,da,874,270
4,sub-013,6,Sham,LE_lowF3_RE_ga,65490,67249,2,da,549,90
5,sub-013,6,Sham,LE_lowF3_RE_ga,68489,70249,3,ga,704,90
6,sub-013,6,Sham,LE_lowF3_RE_amb,71489,73249,3,ga,765,90
7,sub-013,6,Sham,LE_highF3_RE_amb,74489,76261,2,da,534,270
8,sub-013,6,Sham,LE_highF3_RE_amb,77489,79253,2,da,495,150
9,sub-013,6,Sham,LE_highF3_RE_da,80489,82244,2,da,544,30
10,sub-013,6,Sham,no_stimulus,83489,0,0,NaN,0,30
11,sub-013,6,Sham,LE_highF3_RE_amb,86489,88257,2,da,644,210
12,sub-013,6,Sham,LE_highF3_RE_amb,89489,91265,2,da,552,330
13,sub-013,6,Sham,no_stimulus,92489,0,0,NaN,0,330
14,sub-013,6,Sham,LE_highF3_RE_amb,95489,97261,2,da,629,270
15,sub-013,6,Sham,no_stimulus,98489,0,0,NaN,0,270
16,sub-013,6,Sham,LE_lowF3_RE_amb,101489,103244,2,da,908,30
17,sub-013,6,Sham,LE_lowF3_RE_ga,104489,106257,0,NaN,0,210
18,sub-013,6,Sham,no_stimulus,107489,0,0,NaN,0,210
19,sub-013,6,Sham,LE_highF3_RE_amb,110489,112248,2,da,534,90
20,sub-013,6,Sham,LE_lowF3_RE_ga,113489,115244,3,ga,951,30
21,sub-013,6,Sham,LE_lowF3_RE_amb,116489,118244,2,da,893,30
22,sub-013,6,Sham,no_stimulus,119488,0,0,NaN,0,30
23,sub-013,6,Sham,LE_highF3_RE_amb,122488,124252,0,NaN,0,150
24,sub-013,6,Sham,no_stimulus,125488,0,0,NaN,0,150
25,sub-013,6,Sham,LE_lowF3_RE_amb,128488,130265,3,ga,773,330
26,sub-013,6,Sham,LE_lowF3_RE_ga,131488,133265,3,ga,518,330
27,sub-013,6,Sham,LE_lowF3_RE_amb,134488,136260,3,ga,591,270
28,sub-013,6,Sham,no_stimulus,137488,0,0,NaN,0,270
29,sub-013,6,Sham,LE_highF3_RE_amb,140488,142260,2,da,715,270
30,sub-013,6,Sham,no_stimulus,143488,0,0,NaN,0,270
31,sub-013,6,Sham,LE_lowF3_RE_amb,146488,148248,3,ga,1030,90
32,sub-013,6,Sham,no_stimulus,149488,0,0,NaN,0,90
33,sub-013,6,Sham,LE_lowF3_RE_amb,152488,154248,0,NaN,0,90
34,sub-013,6,Sham,no_stimulus,155488,0,0,NaN,0,90
35,sub-013,6,Sham,LE_highF3_RE_amb,158488,160244,2,da,795,30
36,sub-013,6,Sham,LE_lowF3_RE_amb,161488,163244,3,ga,1052,30
37,sub-013,6,Sham,LE_lowF3_RE_ga,164488,166260,3,ga,659,270
38,sub-013,6,Sham,LE_highF3_RE_amb,167488,169264,0,NaN,0,330
39,sub-013,6,Sham,no_stimulus,170488,0,0,NaN,0,330
40,sub-013,6,Sham,LE_highF3_RE_amb,173487,175248,2,da,754,90
41,sub-013,6,Sham,LE_highF3_RE_amb,176487,178256,0,NaN,0,210
42,sub-013,6,Sham,LE_highF3_RE_da,179487,181256,2,da,471,210
43,sub-013,6,Sham,no_stimulus,182487,0,0,NaN,0,210
44,sub-013,6,Sham,LE_highF3_RE_amb,185487,187243,3,ga,666,30
45,sub-013,6,Sham,LE_highF3_RE_amb,188487,190260,3,ga,759,270
46,sub-013,6,Sham,LE_highF3_RE_da,191487,193260,3,ga,584,270
47,sub-013,6,Sham,no_stimulus,194487,0,0,NaN,0,270
48,sub-013,6,Sham,LE_lowF3_RE_amb,197487,199260,3,ga,864,270
49,sub-013,6,Sham,no_stimulus,200487,0,0,NaN,0,270
50,sub-013,6,Sham,LE_highF3_RE_amb,203487,205251,2,da,1040,150
51,sub-013,6,Sham,LE_lowF3_RE_ga,206487,208260,3,ga,463,270
52,sub-013,6,Sham,no_stimulus,209487,0,0,NaN,0,270
53,sub-013,6,Sham,LE_lowF3_RE_amb,212487,214255,2,da,1151,210
54,sub-013,6,Sham,LE_lowF3_RE_ga,215487,217251,3,ga,497,150
55,sub-013,6,Sham,no_stimulus,218487,0,0,NaN,0,150
56,sub-013,6,Sham,LE_highF3_RE_amb,221487,223243,0,NaN,0,30
57,sub-013,6,Sham,LE_highF3_RE_da,224486,226251,2,da,563,150
58,sub-013,6,Sham,no_stimulus,227486,0,0,NaN,0,150
59,sub-013,6,Sham,LE_lowF3_RE_amb,230486,232255,3,ga,969,210
60,sub-013,6,Sham,LE_lowF3_RE_ga,233486,235243,0,NaN,0,30
61,sub-013,6,Sham,LE_lowF3_RE_amb,236486,238247,2,da,760,90
62,sub-013,6,Sham,LE_highF3_RE_amb,239486,241243,2,da,719,30
63,sub-013,6,Sham,LE_lowF3_RE_ga,242486,244255,3,ga,647,210
64,sub-013,6,Sham,no_stimulus,245486,0,0,NaN,0,210
65,sub-013,6,Sham,LE_lowF3_RE_amb,248486,250243,0,NaN,0,30
66,sub-013,6,Sham,LE_highF3_RE_da,251486,253259,2,da,420,270
67,sub-013,6,Sham,no_stimulus,254486,0,0,NaN,0,270
68,sub-013,6,Sham,LE_highF3_RE_amb,257486,259259,2,da,796,270
69,sub-013,6,Sham,LE_lowF3_RE_amb,260486,262263,2,da,554,330
70,sub-013,6,Sham,no_stimulus,263486,0,0,NaN,0,330
71,sub-013,6,Sham,LE_lowF3_RE_amb,266486,268259,0,NaN,0,270
72,sub-013,6,Sham,no_stimulus,269486,0,0,NaN,0,270
73,sub-013,6,Sham,LE_lowF3_RE_amb,272486,274251,2,da,704,150
74,sub-013,6,Sham,LE_lowF3_RE_amb,275486,277255,2,da,504,210
75,sub-013,6,Sham,LE_highF3_RE_da,278485,280251,2,da,483,150
76,sub-013,6,Sham,no_stimulus,281485,0,0,NaN,0,150
77,sub-013,6,Sham,LE_lowF3_RE_amb,284485,286250,3,ga,753,150
78,sub-013,6,Sham,no_stimulus,287485,0,0,NaN,0,150
79,sub-013,6,Sham,LE_highF3_RE_amb,290485,292263,3,ga,636,330
80,sub-013,6,Sham,LE_highF3_RE_da,293485,295255,0,NaN,0,210
81,sub-013,6,Sham,no_stimulus,296485,0,0,NaN,0,210
82,sub-013,6,Sham,LE_highF3_RE_amb,299485,301246,2,da,732,90
83,sub-013,6,Sham,LE_highF3_RE_da,302485,304242,0,NaN,0,30
84,sub-013,6,Sham,LE_highF3_RE_da,305485,307263,2,da,633,330
85,sub-013,6,Sham,no_stimulus,308485,0,0,NaN,0,330
86,sub-013,6,Sham,LE_lowF3_RE_amb,311485,313246,0,NaN,0,90
87,sub-013,6,Sham,LE_lowF3_RE_amb,314485,316250,0,NaN,0,150
88,sub-013,6,Sham,LE_lowF3_RE_amb,317485,319254,2,da,525,210
89,sub-013,6,Sham,LE_highF3_RE_da,320485,322246,2,da,454,90
90,sub-013,6,Sham,no_stimulus,323485,0,0,NaN,0,90
91,sub-013,6,Sham,LE_lowF3_RE_amb,326485,328262,2,da,494,330
92,sub-013,6,Sham,no_stimulus,329484,0,0,NaN,0,330
93,sub-013,6,Sham,LE_highF3_RE_amb,332484,334254,2,da,471,210
94,sub-013,6,Sham,no_stimulus,335484,0,0,NaN,0,210
95,sub-013,6,Sham,LE_lowF3_RE_amb,338484,340262,3,ga,825,330
96,sub-013,6,Sham,LE_lowF3_RE_ga,341484,343262,3,ga,520,330
97,sub-013,6,Sham,LE_highF3_RE_amb,344484,346250,2,da,1002,150
98,sub-013,6,Sham,no_stimulus,347484,0,0,NaN,0,150
99,sub-013,6,Sham,LE_lowF3_RE_amb,350484,352254,2,da,740,210
100,sub-013,6,Sham,LE_highF3_RE_da,353484,355246,2,da,849,90
101,sub-013,6,Sham,no_stimulus,356484,0,0,NaN,0,90
102,sub-013,6,Sham,LE_lowF3_RE_amb,359484,361250,2,da,884,150
103,sub-013,6,Sham,no_stimulus,362484,0,0,NaN,0,150
104,sub-013,6,Sham,LE_lowF3_RE_amb,365484,367258,0,NaN,0,270
105,sub-013,6,Sham,LE_highF3_RE_amb,368484,370254,2,da,662,210
106,sub-013,6,Sham,LE_highF3_RE_da,371484,373262,2,da,808,330
107,sub-013,6,Sham,no_stimulus,374484,0,0,NaN,0,330
108,sub-013,6,Sham,LE_lowF3_RE_amb,377484,379241,3,ga,941,30
109,sub-013,6,Sham,LE_lowF3_RE_ga,380483,382249,2,da,925,150
110,sub-013,6,Sham,LE_lowF3_RE_amb,383483,385249,3,ga,835,150
111,sub-013,6,Sham,LE_highF3_RE_amb,386483,388245,2,da,565,90
112,sub-013,6,Sham,LE_lowF3_RE_amb,389483,391258,0,NaN,0,270
113,sub-013,6,Sham,LE_lowF3_RE_amb,392483,394262,3,ga,923,330
114,sub-013,6,Sham,no_stimulus,395483,0,0,NaN,0,330
115,sub-013,6,Sham,LE_highF3_RE_amb,398483,400249,0,NaN,0,150
116,sub-013,6,Sham,LE_highF3_RE_amb,401483,403245,2,da,751,90
117,sub-013,6,Sham,no_stimulus,404483,0,0,NaN,0,90
118,sub-013,6,Sham,LE_highF3_RE_amb,407483,409262,2,da,1064,330
119,sub-013,6,Sham,LE_highF3_RE_amb,410483,412241,2,da,494,30
120,sub-013,6,Sham,no_stimulus,413483,0,0,NaN,0,30
121,sub-013,6,Sham,LE_highF3_RE_amb,416483,418262,0,NaN,0,330
122,sub-013,6,Sham,LE_lowF3_RE_ga,419483,421245,0,NaN,0,90
123,sub-013,6,Sham,no_stimulus,422483,0,0,NaN,0,90
124,sub-013,6,Sham,LE_highF3_RE_amb,425483,427253,2,da,698,210
125,sub-013,6,Sham,LE_highF3_RE_da,428483,430261,2,da,518,330
126,sub-013,6,Sham,LE_lowF3_RE_ga,431482,433253,0,NaN,0,210
127,sub-013,6,Sham,no_stimulus,434482,0,0,NaN,0,210
128,sub-013,6,Sham,no_stimulus,437482,0,0,NaN,0,210
1,sub-013,7,aph40Hz,no_stimulus,45352,0,0,NaN,0,0
2,sub-013,7,aph40Hz,no_stimulus,48352,0,0,NaN,0,0
3,sub-013,7,aph40Hz,LE_highF3_RE_da,51352,53106,2,da,897,30
4,sub-013,7,aph40Hz,LE_highF3_RE_da,54352,56115,2,da,484,150
5,sub-013,7,aph40Hz,LE_lowF3_RE_ga,57351,59111,3,ga,492,90
6,sub-013,7,aph40Hz,no_stimulus,60351,0,0,NaN,0,90
7,sub-013,7,aph40Hz,LE_highF3_RE_amb,63351,65111,2,da,746,90
8,sub-013,7,aph40Hz,no_stimulus,66351,0,0,NaN,0,90
9,sub-013,7,aph40Hz,LE_highF3_RE_amb,69351,71115,2,da,646,150
10,sub-013,7,aph40Hz,no_stimulus,72351,0,0,NaN,0,150
11,sub-013,7,aph40Hz,LE_lowF3_RE_amb,75351,77127,2,da,911,330
12,sub-013,7,aph40Hz,LE_highF3_RE_amb,78351,80119,2,da,570,210
13,sub-013,7,aph40Hz,LE_highF3_RE_da,81351,83106,2,da,491,30
14,sub-013,7,aph40Hz,no_stimulus,84351,0,0,NaN,0,30
15,sub-013,7,aph40Hz,LE_highF3_RE_amb,87351,89123,2,da,569,270
16,sub-013,7,aph40Hz,LE_lowF3_RE_amb,90351,92119,0,NaN,0,210
17,sub-013,7,aph40Hz,LE_highF3_RE_da,93351,95114,2,da,654,150
18,sub-013,7,aph40Hz,no_stimulus,96351,0,0,NaN,0,150
19,sub-013,7,aph40Hz,LE_highF3_RE_amb,99351,101114,0,NaN,0,150
20,sub-013,7,aph40Hz,LE_highF3_RE_da,102351,104123,2,da,449,270
21,sub-013,7,aph40Hz,LE_lowF3_RE_amb,105350,107127,3,ga,880,330
22,sub-013,7,aph40Hz,no_stimulus,108350,0,0,NaN,0,330
23,sub-013,7,aph40Hz,LE_lowF3_RE_amb,111350,113106,0,NaN,0,30
24,sub-013,7,aph40Hz,LE_lowF3_RE_amb,114350,116114,3,ga,477,150
25,sub-013,7,aph40Hz,no_stimulus,117350,0,0,NaN,0,150
26,sub-013,7,aph40Hz,LE_highF3_RE_amb,120350,122114,2,da,882,150
27,sub-013,7,aph40Hz,LE_lowF3_RE_amb,123350,125114,2,da,457,150
28,sub-013,7,aph40Hz,LE_lowF3_RE_ga,126350,128114,3,ga,549,150
29,sub-013,7,aph40Hz,no_stimulus,129350,0,0,NaN,0,150
30,sub-013,7,aph40Hz,LE_lowF3_RE_amb,132350,134122,2,da,844,270
31,sub-013,7,aph40Hz,no_stimulus,135350,0,0,NaN,0,270
32,sub-013,7,aph40Hz,LE_lowF3_RE_amb,138350,140122,0,NaN,0,270
33,sub-013,7,aph40Hz,LE_lowF3_RE_amb,141350,143110,2,da,431,90
34,sub-013,7,aph40Hz,LE_lowF3_RE_ga,144350,146114,3,ga,331,150
35,sub-013,7,aph40Hz,no_stimulus,147350,0,0,NaN,0,150
36,sub-013,7,aph40Hz,LE_lowF3_RE_amb,150350,152114,2,da,655,150
37,sub-013,7,aph40Hz,no_stimulus,153350,0,0,NaN,0,150
38,sub-013,7,aph40Hz,LE_highF3_RE_amb,156349,158105,2,da,869,30
39,sub-013,7,aph40Hz,no_stimulus,159350,0,0,NaN,0,30
40,sub-013,7,aph40Hz,LE_highF3_RE_amb,162349,164126,3,ga,931,330
41,sub-013,7,aph40Hz,LE_lowF3_RE_amb,165349,167122,3,ga,1058,270
42,sub-013,7,aph40Hz,LE_lowF3_RE_ga,168349,170126,3,ga,476,330
43,sub-013,7,aph40Hz,no_stimulus,171349,0,0,NaN,0,330
44,sub-013,7,aph40Hz,LE_highF3_RE_amb,174349,176105,3,ga,1108,30
45,sub-013,7,aph40Hz,no_stimulus,177349,0,0,NaN,0,30
46,sub-013,7,aph40Hz,LE_highF3_RE_amb,180349,182118,2,da,828,210
47,sub-013,7,aph40Hz,LE_highF3_RE_amb,183349,185126,2,da,1115,330
48,sub-013,7,aph40Hz,LE_highF3_RE_da,186349,188105,3,ga,1044,30
49,sub-013,7,aph40Hz,LE_highF3_RE_da,189349,191126,2,da,423,330
50,sub-013,7,aph40Hz,LE_highF3_RE_da,192349,194121,2,da,1001,270
51,sub-013,7,aph40Hz,no_stimulus,195349,0,0,NaN,0,270
52,sub-013,7,aph40Hz,LE_highF3_RE_amb,198349,200105,0,NaN,0,30
53,sub-013,7,aph40Hz,LE_highF3_RE_amb,201349,203109,2,da,547,90
54,sub-013,7,aph40Hz,no_stimulus,204349,0,0,NaN,0,90
55,sub-013,7,aph40Hz,LE_highF3_RE_amb,207349,209109,2,da,650,90
56,sub-013,7,aph40Hz,no_stimulus,210349,0,0,NaN,0,90
57,sub-013,7,aph40Hz,LE_highF3_RE_amb,213348,215121,2,da,945,270
58,sub-013,7,aph40Hz,LE_lowF3_RE_amb,216348,218109,0,NaN,0,90
59,sub-013,7,aph40Hz,LE_highF3_RE_amb,219348,221105,2,da,687,30
60,sub-013,7,aph40Hz,no_stimulus,222348,0,0,NaN,0,30
61,sub-013,7,aph40Hz,LE_lowF3_RE_amb,225348,227109,0,NaN,0,90
62,sub-013,7,aph40Hz,LE_lowF3_RE_ga,228348,230104,2,da,876,30
63,sub-013,7,aph40Hz,no_stimulus,231348,0,0,NaN,0,30
64,sub-013,7,aph40Hz,LE_lowF3_RE_amb,234348,236117,3,ga,1153,210
65,sub-013,7,aph40Hz,LE_lowF3_RE_ga,237348,239109,3,ga,524,90
66,sub-013,7,aph40Hz,no_stimulus,240348,0,0,NaN,0,90
67,sub-013,7,aph40Hz,LE_highF3_RE_amb,243348,245117,2,da,861,210
68,sub-013,7,aph40Hz,no_stimulus,246348,0,0,NaN,0,210
69,sub-013,7,aph40Hz,LE_lowF3_RE_amb,249348,251125,3,ga,741,330
70,sub-013,7,aph40Hz,LE_highF3_RE_amb,252348,254125,2,da,444,330
71,sub-013,7,aph40Hz,no_stimulus,255348,0,0,NaN,0,330
72,sub-013,7,aph40Hz,LE_highF3_RE_amb,258348,260121,0,NaN,0,270
73,sub-013,7,aph40Hz,LE_highF3_RE_da,261348,263108,0,NaN,0,90
74,sub-013,7,aph40Hz,LE_lowF3_RE_amb,264348,266117,3,ga,973,210
75,sub-013,7,aph40Hz,no_stimulus,267347,0,0,NaN,0,210
76,sub-013,7,aph40Hz,LE_highF3_RE_amb,270347,272108,0,NaN,0,90
77,sub-013,7,aph40Hz,no_stimulus,273347,0,0,NaN,0,90
78,sub-013,7,aph40Hz,LE_highF3_RE_amb,276347,278125,0,NaN,0,330
79,sub-013,7,aph40Hz,LE_highF3_RE_da,279347,281112,2,da,668,150
80,sub-013,7,aph40Hz,LE_highF3_RE_amb,282347,284112,2,da,427,150
81,sub-013,7,aph40Hz,LE_lowF3_RE_amb,285347,287125,2,da,403,330
82,sub-013,7,aph40Hz,LE_highF3_RE_da,288347,290108,2,da,765,90
83,sub-013,7,aph40Hz,no_stimulus,291347,0,0,NaN,0,90
84,sub-013,7,aph40Hz,LE_highF3_RE_amb,294347,296125,2,da,683,330
85,sub-013,7,aph40Hz,LE_highF3_RE_amb,297347,299112,2,da,679,150
86,sub-013,7,aph40Hz,LE_lowF3_RE_ga,300347,302116,0,NaN,0,210
87,sub-013,7,aph40Hz,no_stimulus,303347,0,0,NaN,0,210
88,sub-013,7,aph40Hz,LE_lowF3_RE_amb,306347,308104,0,NaN,0,30
89,sub-013,7,aph40Hz,LE_highF3_RE_amb,309347,311116,0,NaN,0,210
90,sub-013,7,aph40Hz,LE_lowF3_RE_ga,312347,314120,3,ga,607,270
91,sub-013,7,aph40Hz,no_stimulus,315346,0,0,NaN,0,270
92,sub-013,7,aph40Hz,LE_lowF3_RE_amb,318346,320108,0,NaN,0,90
93,sub-013,7,aph40Hz,LE_lowF3_RE_ga,321346,323120,3,ga,568,270
94,sub-013,7,aph40Hz,LE_lowF3_RE_amb,324346,326103,2,da,491,30
95,sub-013,7,aph40Hz,no_stimulus,327346,0,0,NaN,0,30
96,sub-013,7,aph40Hz,LE_lowF3_RE_amb,330346,332108,3,ga,622,90
97,sub-013,7,aph40Hz,LE_highF3_RE_amb,333346,335103,2,da,657,30
98,sub-013,7,aph40Hz,no_stimulus,336346,0,0,NaN,0,30
99,sub-013,7,aph40Hz,LE_lowF3_RE_amb,339346,341116,3,ga,881,210
100,sub-013,7,aph40Hz,no_stimulus,342346,0,0,NaN,0,210
101,sub-013,7,aph40Hz,LE_lowF3_RE_amb,345346,347124,3,ga,744,330
102,sub-013,7,aph40Hz,LE_highF3_RE_da,348346,350116,2,da,657,210
103,sub-013,7,aph40Hz,no_stimulus,351346,0,0,NaN,0,210
104,sub-013,7,aph40Hz,LE_lowF3_RE_amb,354346,356116,3,ga,992,210
105,sub-013,7,aph40Hz,LE_highF3_RE_amb,357346,359107,0,NaN,0,90
106,sub-013,7,aph40Hz,LE_highF3_RE_da,360346,362115,2,da,1098,210
107,sub-013,7,aph40Hz,LE_lowF3_RE_amb,363346,365120,3,ga,707,270
108,sub-013,7,aph40Hz,no_stimulus,366345,0,0,NaN,0,270
109,sub-013,7,aph40Hz,LE_highF3_RE_amb,369345,371115,0,NaN,0,210
110,sub-013,7,aph40Hz,no_stimulus,372345,0,0,NaN,0,210
111,sub-013,7,aph40Hz,LE_lowF3_RE_amb,375345,377111,3,ga,700,150
112,sub-013,7,aph40Hz,LE_highF3_RE_amb,378345,380119,2,da,518,270
113,sub-013,7,aph40Hz,LE_highF3_RE_da,381345,383124,2,da,679,330
114,sub-013,7,aph40Hz,no_stimulus,384345,0,0,NaN,0,330
115,sub-013,7,aph40Hz,LE_lowF3_RE_amb,387345,389103,0,NaN,0,30
116,sub-013,7,aph40Hz,LE_highF3_RE_amb,390345,392119,2,da,681,270
117,sub-013,7,aph40Hz,LE_lowF3_RE_ga,393345,395115,3,ga,548,210
118,sub-013,7,aph40Hz,LE_lowF3_RE_ga,396345,398103,3,ga,971,30
119,sub-013,7,aph40Hz,no_stimulus,399345,0,0,NaN,0,30
120,sub-013,7,aph40Hz,LE_lowF3_RE_amb,402345,404119,0,NaN,0,270
121,sub-013,7,aph40Hz,LE_lowF3_RE_ga,405345,407123,3,ga,463,330
122,sub-013,7,aph40Hz,no_stimulus,408345,0,0,NaN,0,330
123,sub-013,7,aph40Hz,LE_lowF3_RE_amb,411345,413111,3,ga,849,150
124,sub-013,7,aph40Hz,LE_lowF3_RE_amb,414345,416102,0,NaN,0,30
125,sub-013,7,aph40Hz,LE_lowF3_RE_ga,417344,419115,3,ga,1141,210
126,sub-013,7,aph40Hz,LE_lowF3_RE_ga,420344,422106,0,NaN,0,90
127,sub-013,7,aph40Hz,no_stimulus,423344,0,0,NaN,0,90
128,sub-013,7,aph40Hz,no_stimulus,426344,0,0,NaN,0,90
1,sub-013,8,Sham,no_stimulus,59247,0,0,NaN,0,0
2,sub-013,8,Sham,no_stimulus,62247,0,0,NaN,0,0
3,sub-013,8,Sham,LE_highF3_RE_da,65247,67011,2,da,743,150
4,sub-013,8,Sham,LE_lowF3_RE_ga,68247,70002,3,ga,582,30
5,sub-013,8,Sham,LE_highF3_RE_da,71247,73019,2,da,630,270
6,sub-013,8,Sham,LE_lowF3_RE_ga,74247,76011,3,ga,640,150
7,sub-013,8,Sham,LE_highF3_RE_amb,77247,79019,2,da,468,270
8,sub-013,8,Sham,no_stimulus,80247,0,0,NaN,0,270
9,sub-013,8,Sham,LE_highF3_RE_amb,83247,85006,3,ga,776,90
10,sub-013,8,Sham,LE_highF3_RE_amb,86247,88019,2,da,478,270
11,sub-013,8,Sham,LE_highF3_RE_da,89247,91014,2,da,453,210
12,sub-013,8,Sham,no_stimulus,92247,0,0,NaN,0,210
13,sub-013,8,Sham,LE_highF3_RE_amb,95247,97002,2,da,563,30
14,sub-013,8,Sham,LE_highF3_RE_amb,98247,100014,2,da,525,210
15,sub-013,8,Sham,no_stimulus,101247,0,0,NaN,0,210
16,sub-013,8,Sham,LE_lowF3_RE_amb,104247,106006,2,da,769,90
17,sub-013,8,Sham,no_stimulus,107247,0,0,NaN,0,90
18,sub-013,8,Sham,LE_highF3_RE_amb,110246,112014,2,da,638,210
19,sub-013,8,Sham,LE_lowF3_RE_ga,113246,115023,3,ga,565,330
20,sub-013,8,Sham,no_stimulus,116246,0,0,NaN,0,330
21,sub-013,8,Sham,LE_highF3_RE_amb,119246,121018,0,NaN,0,270
22,sub-013,8,Sham,LE_highF3_RE_da,122246,124002,2,da,526,30
23,sub-013,8,Sham,no_stimulus,125246,0,0,NaN,0,30
24,sub-013,8,Sham,LE_lowF3_RE_amb,128246,130002,3,ga,587,30
25,sub-013,8,Sham,no_stimulus,131246,0,0,NaN,0,30
26,sub-013,8,Sham,LE_highF3_RE_amb,134246,136018,2,da,731,270
27,sub-013,8,Sham,LE_highF3_RE_amb,137246,139006,2,da,644,90
28,sub-013,8,Sham,no_stimulus,140246,0,0,NaN,0,90
29,sub-013,8,Sham,LE_highF3_RE_amb,143246,145022,2,da,1014,330
30,sub-013,8,Sham,LE_highF3_RE_da,146246,148014,2,da,524,210
31,sub-013,8,Sham,no_stimulus,149246,0,0,NaN,0,210
32,sub-013,8,Sham,LE_highF3_RE_amb,152246,154001,3,ga,988,30
33,sub-013,8,Sham,LE_lowF3_RE_ga,155246,157001,3,ga,666,30
34,sub-013,8,Sham,LE_lowF3_RE_amb,158246,160014,0,NaN,0,210
35,sub-013,8,Sham,no_stimulus,161246,0,0,NaN,0,210
36,sub-013,8,Sham,LE_lowF3_RE_amb,164245,166014,3,ga,1054,210
37,sub-013,8,Sham,no_stimulus,167245,0,0,NaN,0,210
38,sub-013,8,Sham,LE_lowF3_RE_amb,170245,172014,0,NaN,0,210
39,sub-013,8,Sham,LE_highF3_RE_amb,173245,175001,2,da,539,30
40,sub-013,8,Sham,LE_lowF3_RE_amb,176245,178018,3,ga,573,270
41,sub-013,8,Sham,LE_highF3_RE_amb,179245,181014,2,da,552,210
42,sub-013,8,Sham,LE_lowF3_RE_ga,182245,184009,3,ga,661,150
43,sub-013,8,Sham,no_stimulus,185245,0,0,NaN,0,150
44,sub-013,8,Sham,LE_highF3_RE_amb,188245,190009,2,da,706,150
45,sub-013,8,Sham,no_stimulus,191245,0,0,NaN,0,150
46,sub-013,8,Sham,LE_lowF3_RE_amb,194245,196017,2,da,553,270
47,sub-013,8,Sham,LE_lowF3_RE_amb,197245,199001,2,da,612,30
48,sub-013,8,Sham,no_stimulus,200245,0,0,NaN,0,30
49,sub-013,8,Sham,LE_lowF3_RE_amb,203245,205013,0,NaN,0,210
50,sub-013,8,Sham,no_stimulus,206245,0,0,NaN,0,210
51,sub-013,8,Sham,LE_lowF3_RE_amb,209245,211005,3,ga,718,90
52,sub-013,8,Sham,no_stimulus,212245,0,0,NaN,0,90
53,sub-013,8,Sham,LE_highF3_RE_amb,215244,217001,2,da,875,30
54,sub-013,8,Sham,no_stimulus,218244,0,0,NaN,0,30
55,sub-013,8,Sham,LE_lowF3_RE_amb,221244,223009,0,NaN,0,150
56,sub-013,8,Sham,LE_lowF3_RE_amb,224244,226021,3,ga,698,330
57,sub-013,8,Sham,no_stimulus,227244,0,0,NaN,0,330
58,sub-013,8,Sham,LE_highF3_RE_amb,230244,232013,2,da,535,210
59,sub-013,8,Sham,LE_lowF3_RE_amb,233244,235021,2,da,803,330
60,sub-013,8,Sham,LE_highF3_RE_amb,236244,238000,2,da,587,30
61,sub-013,8,Sham,no_stimulus,239244,0,0,NaN,0,30
62,sub-013,8,Sham,LE_highF3_RE_amb,242244,244013,2,da,728,210
63,sub-013,8,Sham,LE_lowF3_RE_ga,245244,247017,3,ga,721,270
64,sub-013,8,Sham,no_stimulus,248244,0,0,NaN,0,270
65,sub-013,8,Sham,LE_lowF3_RE_amb,251244,253021,2,da,511,330
66,sub-013,8,Sham,LE_lowF3_RE_amb,254244,256004,3,ga,622,90
67,sub-013,8,Sham,LE_highF3_RE_da,257244,259021,2,da,586,330
68,sub-013,8,Sham,no_stimulus,260244,0,0,NaN,0,330
69,sub-013,8,Sham,LE_lowF3_RE_amb,263244,265017,0,NaN,0,270
70,sub-013,8,Sham,no_stimulus,266243,0,0,NaN,0,270
71,sub-013,8,Sham,LE_lowF3_RE_amb,269243,271004,0,NaN,0,90
72,sub-013,8,Sham,LE_highF3_RE_da,272243,274004,2,da,680,90
73,sub-013,8,Sham,LE_highF3_RE_amb,275243,277008,2,da,824,150
74,sub-013,8,Sham,no_stimulus,278243,0,0,NaN,0,150
75,sub-013,8,Sham,LE_lowF3_RE_amb,281243,283021,2,da,1017,330
76,sub-013,8,Sham,no_stimulus,284243,0,0,NaN,0,330
77,sub-013,8,Sham,LE_lowF3_RE_amb,287243,289016,3,ga,989,270
78,sub-013,8,Sham,no_stimulus,290243,0,0,NaN,0,270
79,sub-013,8,Sham,LE_highF3_RE_amb,293243,295016,2,da,651,270
80,sub-013,8,Sham,LE_lowF3_RE_amb,296243,298008,2,da,969,150
81,sub-013,8,Sham,LE_lowF3_RE_ga,299243,301020,3,ga,580,330
82,sub-013,8,Sham,no_stimulus,302243,0,0,NaN,0,330
83,sub-013,8,Sham,LE_highF3_RE_amb,305243,307008,3,ga,1146,150
84,sub-013,8,Sham,LE_highF3_RE_da,308243,310020,2,da,529,330
85,sub-013,8,Sham,no_stimulus,311243,0,0,NaN,0,330
86,sub-013,8,Sham,LE_highF3_RE_amb,314243,316004,2,da,717,90
87,sub-013,8,Sham,LE_highF3_RE_da,317243,318999,2,da,602,30
88,sub-013,8,Sham,LE_lowF3_RE_amb,320242,322004,2,da,948,90
89,sub-013,8,Sham,no_stimulus,323242,0,0,NaN,0,90
90,sub-013,8,Sham,LE_highF3_RE_amb,326242,328004,0,NaN,0,90
91,sub-013,8,Sham,LE_highF3_RE_amb,329242,331020,2,da,471,330
92,sub-013,8,Sham,LE_lowF3_RE_amb,332242,333999,3,ga,552,30
93,sub-013,8,Sham,LE_highF3_RE_da,335242,337008,2,da,533,150
94,sub-013,8,Sham,no_stimulus,338242,0,0,NaN,0,150
95,sub-013,8,Sham,LE_lowF3_RE_amb,341242,343020,2,da,529,330
96,sub-013,8,Sham,no_stimulus,344242,0,0,NaN,0,330
97,sub-013,8,Sham,LE_lowF3_RE_amb,347242,349007,3,ga,889,150
98,sub-013,8,Sham,no_stimulus,350242,0,0,NaN,0,150
99,sub-013,8,Sham,LE_lowF3_RE_amb,353242,354999,3,ga,839,30
100,sub-013,8,Sham,LE_lowF3_RE_ga,356242,358003,3,ga,468,90
101,sub-013,8,Sham,LE_lowF3_RE_ga,359242,361016,3,ga,473,270
102,sub-013,8,Sham,LE_highF3_RE_amb,362242,364020,2,da,659,330
103,sub-013,8,Sham,no_stimulus,365241,0,0,NaN,0,330
104,sub-013,8,Sham,LE_lowF3_RE_amb,368241,369999,0,NaN,0,30
105,sub-013,8,Sham,LE_lowF3_RE_amb,371241,373016,0,NaN,0,270
106,sub-013,8,Sham,LE_lowF3_RE_ga,374241,376003,3,ga,547,90
107,sub-013,8,Sham,no_stimulus,377241,0,0,NaN,0,90
108,sub-013,8,Sham,LE_highF3_RE_amb,380241,382007,2,da,495,150
109,sub-013,8,Sham,LE_highF3_RE_amb,383241,385003,2,da,661,90
110,sub-013,8,Sham,LE_lowF3_RE_ga,386241,388011,2,da,711,210
111,sub-013,8,Sham,LE_highF3_RE_da,389241,391007,2,da,723,150
112,sub-013,8,Sham,no_stimulus,392241,0,0,NaN,0,150
113,sub-013,8,Sham,LE_lowF3_RE_amb,395241,397007,0,NaN,0,150
114,sub-013,8,Sham,LE_highF3_RE_amb,398241,400007,2,da,531,150
115,sub-013,8,Sham,LE_highF3_RE_da,401241,403015,2,da,390,270
116,sub-013,8,Sham,LE_lowF3_RE_ga,404241,406011,3,ga,392,210
117,sub-013,8,Sham,no_stimulus,407241,0,0,NaN,0,210
118,sub-013,8,Sham,LE_highF3_RE_amb,410241,412019,2,da,837,330
119,sub-013,8,Sham,LE_highF3_RE_da,413241,415003,2,da,475,90
120,sub-013,8,Sham,no_stimulus,416241,0,0,NaN,0,90
121,sub-013,8,Sham,LE_highF3_RE_amb,419240,421019,2,da,720,330
122,sub-013,8,Sham,LE_lowF3_RE_ga,422240,423998,3,ga,746,30
123,sub-013,8,Sham,LE_lowF3_RE_amb,425240,427011,3,ga,734,210
124,sub-013,8,Sham,LE_lowF3_RE_amb,428240,430007,3,ga,732,150
125,sub-013,8,Sham,LE_highF3_RE_da,431240,433011,2,da,828,210
126,sub-013,8,Sham,LE_lowF3_RE_ga,434240,436002,3,ga,1122,90
127,sub-013,8,Sham,no_stimulus,437240,0,0,NaN,0,90
128,sub-013,8,Sham,no_stimulus,440240,0,0,NaN,0,90
1,sub-014,1,iph40Hz,no_stimulus,48218,0,0,NaN,0,0
2,sub-014,1,iph40Hz,no_stimulus,51218,0,0,NaN,0,0
3,sub-014,1,iph40Hz,LE_highF3_RE_da,54218,55977,0,NaN,0,90
4,sub-014,1,iph40Hz,LE_lowF3_RE_ga,57218,58985,2,ga,594,210
5,sub-014,1,iph40Hz,LE_lowF3_RE_amb,60217,61985,3,da,452,210
6,sub-014,1,iph40Hz,LE_highF3_RE_da,63218,64985,3,da,972,210
7,sub-014,1,iph40Hz,no_stimulus,66217,0,0,NaN,0,210
8,sub-014,1,iph40Hz,LE_lowF3_RE_amb,69217,70989,3,da,1110,270
9,sub-014,1,iph40Hz,LE_highF3_RE_da,72217,73981,3,da,1104,150
10,sub-014,1,iph40Hz,no_stimulus,75217,0,0,NaN,0,150
11,sub-014,1,iph40Hz,LE_highF3_RE_amb,78217,79989,3,da,760,270
12,sub-014,1,iph40Hz,LE_highF3_RE_amb,81217,82985,3,da,722,210
13,sub-014,1,iph40Hz,LE_highF3_RE_amb,84217,85980,3,da,724,150
14,sub-014,1,iph40Hz,no_stimulus,87217,0,0,NaN,0,150
15,sub-014,1,iph40Hz,LE_highF3_RE_amb,90217,91989,3,da,1032,270
16,sub-014,1,iph40Hz,no_stimulus,93217,0,0,NaN,0,270
17,sub-014,1,iph40Hz,LE_highF3_RE_amb,96217,97980,0,NaN,0,150
18,sub-014,1,iph40Hz,LE_lowF3_RE_amb,99217,100972,3,da,807,30
19,sub-014,1,iph40Hz,LE_lowF3_RE_amb,102217,103988,2,ga,950,270
20,sub-014,1,iph40Hz,LE_lowF3_RE_ga,105216,106980,2,ga,1009,150
21,sub-014,1,iph40Hz,LE_lowF3_RE_amb,108216,109992,2,ga,747,330
22,sub-014,1,iph40Hz,no_stimulus,111216,0,0,NaN,0,330
23,sub-014,1,iph40Hz,LE_highF3_RE_amb,114216,115988,3,da,873,270
24,sub-014,1,iph40Hz,LE_highF3_RE_amb,117216,118976,2,ga,956,90
25,sub-014,1,iph40Hz,no_stimulus,120216,0,0,NaN,0,90
26,sub-014,1,iph40Hz,LE_highF3_RE_amb,123216,124971,3,da,976,30
27,sub-014,1,iph40Hz,no_stimulus,126216,0,0,NaN,0,30
28,sub-014,1,iph40Hz,LE_highF3_RE_amb,129216,130984,2,ga,938,210
29,sub-014,1,iph40Hz,LE_highF3_RE_da,132216,133988,3,da,573,270
30,sub-014,1,iph40Hz,LE_lowF3_RE_amb,135216,136984,2,ga,743,210
31,sub-014,1,iph40Hz,no_stimulus,138216,0,0,NaN,0,210
32,sub-014,1,iph40Hz,LE_lowF3_RE_amb,141216,142975,0,NaN,0,90
33,sub-014,1,iph40Hz,LE_lowF3_RE_ga,144216,145992,2,ga,766,330
34,sub-014,1,iph40Hz,LE_highF3_RE_amb,147215,148988,3,da,591,270
35,sub-014,1,iph40Hz,no_stimulus,150215,0,0,NaN,0,270
36,sub-014,1,iph40Hz,LE_highF3_RE_amb,153215,154979,2,ga,1097,150
37,sub-014,1,iph40Hz,LE_lowF3_RE_ga,156215,157992,2,ga,730,330
38,sub-014,1,iph40Hz,no_stimulus,159215,0,0,NaN,0,330
39,sub-014,1,iph40Hz,LE_lowF3_RE_amb,162215,163992,2,ga,953,330
40,sub-014,1,iph40Hz,no_stimulus,165215,0,0,NaN,0,330
41,sub-014,1,iph40Hz,LE_lowF3_RE_amb,168215,169979,0,NaN,0,150
42,sub-014,1,iph40Hz,no_stimulus,171215,0,0,NaN,0,150
43,sub-014,1,iph40Hz,LE_lowF3_RE_amb,174215,175979,0,NaN,0,150
44,sub-014,1,iph40Hz,LE_lowF3_RE_ga,177215,178987,2,ga,949,270
45,sub-014,1,iph40Hz,no_stimulus,180215,0,0,NaN,0,270
46,sub-014,1,iph40Hz,LE_lowF3_RE_amb,183214,184970,2,ga,857,30
47,sub-014,1,iph40Hz,LE_highF3_RE_da,186214,187975,3,da,626,90
48,sub-014,1,iph40Hz,LE_lowF3_RE_ga,189214,190975,2,ga,827,90
49,sub-014,1,iph40Hz,no_stimulus,192214,0,0,NaN,0,90
50,sub-014,1,iph40Hz,LE_lowF3_RE_amb,195214,196974,2,ga,1043,90
51,sub-014,1,iph40Hz,LE_highF3_RE_da,198214,199974,3,da,667,90
52,sub-014,1,iph40Hz,no_stimulus,201214,0,0,NaN,0,90
53,sub-014,1,iph40Hz,LE_lowF3_RE_amb,204214,205982,0,NaN,0,210
54,sub-014,1,iph40Hz,LE_highF3_RE_amb,207214,208970,3,da,621,30
55,sub-014,1,iph40Hz,LE_lowF3_RE_amb,210214,211978,2,ga,860,150
56,sub-014,1,iph40Hz,LE_highF3_RE_da,213214,214986,3,da,653,270
57,sub-014,1,iph40Hz,LE_lowF3_RE_ga,216214,217974,2,ga,552,90
58,sub-014,1,iph40Hz,no_stimulus,219214,0,0,NaN,0,90
59,sub-014,1,iph40Hz,LE_highF3_RE_amb,222214,223970,3,da,621,30
60,sub-014,1,iph40Hz,LE_highF3_RE_amb,225213,226978,3,da,1087,150
61,sub-014,1,iph40Hz,LE_highF3_RE_amb,228213,229986,3,da,692,270
62,sub-014,1,iph40Hz,LE_lowF3_RE_ga,231213,232970,3,da,952,30
63,sub-014,1,iph40Hz,no_stimulus,234213,0,0,NaN,0,30
64,sub-014,1,iph40Hz,LE_highF3_RE_amb,237213,238978,3,da,932,150
65,sub-014,1,iph40Hz,no_stimulus,240213,0,0,NaN,0,150
66,sub-014,1,iph40Hz,LE_lowF3_RE_amb,243213,244982,3,da,885,210
67,sub-014,1,iph40Hz,LE_highF3_RE_amb,246213,247974,3,da,751,90
68,sub-014,1,iph40Hz,LE_highF3_RE_amb,249213,250969,3,da,696,30
69,sub-014,1,iph40Hz,LE_lowF3_RE_ga,252213,253982,3,da,1086,210
70,sub-014,1,iph40Hz,no_stimulus,255213,0,0,NaN,0,210
71,sub-014,1,iph40Hz,LE_highF3_RE_amb,258213,259990,3,da,1014,330
72,sub-014,1,iph40Hz,LE_highF3_RE_da,261213,262977,3,da,872,150
73,sub-014,1,iph40Hz,no_stimulus,264212,0,0,NaN,0,150
74,sub-014,1,iph40Hz,LE_highF3_RE_amb,267212,268973,3,da,890,90
75,sub-014,1,iph40Hz,no_stimulus,270212,0,0,NaN,0,90
76,sub-014,1,iph40Hz,LE_lowF3_RE_amb,273212,274986,3,da,899,270
77,sub-014,1,iph40Hz,LE_highF3_RE_amb,276212,277981,3,da,646,210
78,sub-014,1,iph40Hz,LE_lowF3_RE_ga,279212,280981,3,da,677,210
79,sub-014,1,iph40Hz,LE_highF3_RE_amb,282212,283989,3,da,686,330
80,sub-014,1,iph40Hz,no_stimulus,285212,0,0,NaN,0,330
81,sub-014,1,iph40Hz,LE_highF3_RE_amb,288212,289989,3,da,905,330
82,sub-014,1,iph40Hz,LE_lowF3_RE_amb,291212,292973,3,da,677,90
83,sub-014,1,iph40Hz,no_stimulus,294212,0,0,NaN,0,90
84,sub-014,1,iph40Hz,LE_lowF3_RE_amb,297212,298973,3,da,773,90
85,sub-014,1,iph40Hz,LE_lowF3_RE_ga,300212,301968,0,NaN,0,30
86,sub-014,1,iph40Hz,no_stimulus,303211,0,0,NaN,0,30
87,sub-014,1,iph40Hz,LE_lowF3_RE_amb,306211,307989,3,da,677,330
88,sub-014,1,iph40Hz,no_stimulus,309211,0,0,NaN,0,330
89,sub-014,1,iph40Hz,LE_lowF3_RE_amb,312211,313977,0,NaN,0,150
90,sub-014,1,iph40Hz,LE_lowF3_RE_ga,315211,316977,0,NaN,0,150
91,sub-014,1,iph40Hz,LE_highF3_RE_da,318211,319989,0,NaN,0,330
92,sub-014,1,iph40Hz,no_stimulus,321211,0,0,NaN,0,330
93,sub-014,1,iph40Hz,LE_highF3_RE_amb,324211,325980,0,NaN,0,210
94,sub-014,1,iph40Hz,LE_lowF3_RE_amb,327211,328972,0,NaN,0,90
95,sub-014,1,iph40Hz,LE_lowF3_RE_amb,330211,331989,3,da,837,330
96,sub-014,1,iph40Hz,no_stimulus,333211,0,0,NaN,0,330
97,sub-014,1,iph40Hz,LE_lowF3_RE_amb,336211,337984,0,NaN,0,270
98,sub-014,1,iph40Hz,LE_lowF3_RE_amb,339211,340968,3,da,578,30
99,sub-014,1,iph40Hz,LE_lowF3_RE_ga,342210,343984,3,da,818,270
100,sub-014,1,iph40Hz,no_stimulus,345210,0,0,NaN,0,270
101,sub-014,1,iph40Hz,LE_lowF3_RE_amb,348210,349968,0,NaN,0,30
102,sub-014,1,iph40Hz,LE_lowF3_RE_amb,351210,352976,0,NaN,0,150
103,sub-014,1,iph40Hz,LE_highF3_RE_da,354210,355980,0,NaN,0,210
104,sub-014,1,iph40Hz,no_stimulus,357210,0,0,NaN,0,210
105,sub-014,1,iph40Hz,LE_highF3_RE_amb,360210,361967,3,da,963,30
106,sub-014,1,iph40Hz,LE_lowF3_RE_amb,363210,364984,3,da,695,270
107,sub-014,1,iph40Hz,LE_highF3_RE_da,366210,367967,3,da,536,30
108,sub-014,1,iph40Hz,LE_highF3_RE_da,369210,370967,3,da,765,30
109,sub-014,1,iph40Hz,no_stimulus,372210,0,0,NaN,0,30
110,sub-014,1,iph40Hz,LE_highF3_RE_amb,375210,376971,3,da,1119,90
111,sub-014,1,iph40Hz,no_stimulus,378210,0,0,NaN,0,90
112,sub-014,1,iph40Hz,LE_highF3_RE_amb,381209,382988,3,da,729,330
113,sub-014,1,iph40Hz,no_stimulus,384209,0,0,NaN,0,330
114,sub-014,1,iph40Hz,LE_highF3_RE_amb,387209,388971,3,da,673,90
115,sub-014,1,iph40Hz,no_stimulus,390209,0,0,NaN,0,90
116,sub-014,1,iph40Hz,LE_lowF3_RE_amb,393209,394988,3,da,566,330
117,sub-014,1,iph40Hz,LE_highF3_RE_amb,396209,397988,3,da,724,330
118,sub-014,1,iph40Hz,LE_highF3_RE_da,399209,400988,3,da,1116,330
119,sub-014,1,iph40Hz,no_stimulus,402209,0,0,NaN,0,330
120,sub-014,1,iph40Hz,LE_highF3_RE_amb,405209,406979,0,NaN,0,210
121,sub-014,1,iph40Hz,no_stimulus,408209,0,0,NaN,0,210
122,sub-014,1,iph40Hz,LE_lowF3_RE_amb,411209,412979,2,ga,746,210
123,sub-014,1,iph40Hz,no_stimulus,414209,0,0,NaN,0,210
124,sub-014,1,iph40Hz,LE_lowF3_RE_amb,417209,418966,2,ga,888,30
125,sub-014,1,iph40Hz,LE_highF3_RE_da,420209,421987,2,ga,730,330
126,sub-014,1,iph40Hz,LE_lowF3_RE_ga,423208,424983,2,ga,544,270
127,sub-014,1,iph40Hz,no_stimulus,426208,0,0,NaN,0,270
128,sub-014,1,iph40Hz,no_stimulus,429208,0,0,NaN,0,270
1,sub-014,2,Sham,no_stimulus,38388,0,0,NaN,0,0
2,sub-014,2,Sham,no_stimulus,41388,0,0,NaN,0,0
3,sub-014,2,Sham,LE_highF3_RE_da,44388,46151,0,NaN,0,150
4,sub-014,2,Sham,LE_lowF3_RE_ga,47388,49159,3,da,417,270
5,sub-014,2,Sham,LE_lowF3_RE_ga,50388,52151,2,ga,701,150
6,sub-014,2,Sham,LE_highF3_RE_amb,53388,55151,3,da,802,150
7,sub-014,2,Sham,no_stimulus,56387,0,0,NaN,0,150
8,sub-014,2,Sham,LE_lowF3_RE_amb,59387,61163,2,ga,617,330
9,sub-014,2,Sham,LE_lowF3_RE_ga,62387,64155,2,ga,1097,210
10,sub-014,2,Sham,no_stimulus,65387,0,0,NaN,0,210
11,sub-014,2,Sham,LE_lowF3_RE_amb,68387,70151,2,ga,791,150
12,sub-014,2,Sham,no_stimulus,71387,0,0,NaN,0,150
13,sub-014,2,Sham,LE_highF3_RE_amb,74387,76155,3,da,759,210
14,sub-014,2,Sham,LE_lowF3_RE_ga,77387,79163,2,ga,906,330
15,sub-014,2,Sham,no_stimulus,80387,0,0,NaN,0,330
16,sub-014,2,Sham,LE_lowF3_RE_amb,83387,85159,2,ga,932,270
17,sub-014,2,Sham,LE_highF3_RE_da,86387,88163,3,da,788,330
18,sub-014,2,Sham,LE_highF3_RE_amb,89387,91154,2,ga,857,210
19,sub-014,2,Sham,no_stimulus,92387,0,0,NaN,0,210
20,sub-014,2,Sham,LE_highF3_RE_amb,95386,97163,3,da,1066,330
21,sub-014,2,Sham,LE_lowF3_RE_amb,98386,100142,2,ga,726,30
22,sub-014,2,Sham,LE_highF3_RE_da,101386,103154,0,NaN,0,210
23,sub-014,2,Sham,no_stimulus,104386,0,0,NaN,0,210
24,sub-014,2,Sham,LE_lowF3_RE_amb,107386,109154,2,ga,721,210
25,sub-014,2,Sham,LE_highF3_RE_da,110386,112150,3,da,1040,150
26,sub-014,2,Sham,no_stimulus,113386,0,0,NaN,0,150
27,sub-014,2,Sham,LE_lowF3_RE_amb,116386,118146,2,ga,937,90
28,sub-014,2,Sham,no_stimulus,119386,0,0,NaN,0,90
29,sub-014,2,Sham,LE_lowF3_RE_amb,122386,124162,2,ga,673,330
30,sub-014,2,Sham,no_stimulus,125386,0,0,NaN,0,330
31,sub-014,2,Sham,LE_highF3_RE_amb,128386,130141,3,da,914,30
32,sub-014,2,Sham,LE_lowF3_RE_ga,131386,133145,2,ga,1031,90
33,sub-014,2,Sham,LE_highF3_RE_da,134385,136162,3,da,814,330
34,sub-014,2,Sham,no_stimulus,137385,0,0,NaN,0,330
35,sub-014,2,Sham,LE_highF3_RE_amb,140385,142162,2,ga,917,330
36,sub-014,2,Sham,LE_lowF3_RE_amb,143385,145141,2,ga,925,30
37,sub-014,2,Sham,LE_highF3_RE_amb,146385,148141,3,da,771,30
38,sub-014,2,Sham,LE_lowF3_RE_amb,149385,151145,2,ga,724,90
39,sub-014,2,Sham,LE_highF3_RE_da,152385,154141,3,da,672,30
40,sub-014,2,Sham,no_stimulus,155385,0,0,NaN,0,30
41,sub-014,2,Sham,LE_highF3_RE_amb,158385,160153,2,ga,971,210
42,sub-014,2,Sham,LE_lowF3_RE_ga,161385,163141,2,ga,1048,30
43,sub-014,2,Sham,no_stimulus,164385,0,0,NaN,0,30
44,sub-014,2,Sham,LE_highF3_RE_amb,167385,169145,0,NaN,0,90
45,sub-014,2,Sham,LE_lowF3_RE_ga,170385,172141,2,ga,864,30
46,sub-014,2,Sham,no_stimulus,173384,0,0,NaN,0,30
47,sub-014,2,Sham,LE_highF3_RE_amb,176384,178145,3,da,1027,90
48,sub-014,2,Sham,LE_lowF3_RE_amb,179384,181157,2,ga,681,270
49,sub-014,2,Sham,LE_highF3_RE_amb,182384,184157,3,da,967,270
50,sub-014,2,Sham,no_stimulus,185384,0,0,NaN,0,270
51,sub-014,2,Sham,LE_lowF3_RE_amb,188384,190161,0,NaN,0,330
52,sub-014,2,Sham,no_stimulus,191384,0,0,NaN,0,330
53,sub-014,2,Sham,LE_highF3_RE_amb,194384,196153,0,NaN,0,210
54,sub-014,2,Sham,LE_lowF3_RE_ga,197384,199153,2,ga,883,210
55,sub-014,2,Sham,no_stimulus,200384,0,0,NaN,0,210
56,sub-014,2,Sham,LE_highF3_RE_amb,203384,205161,3,da,799,330
57,sub-014,2,Sham,LE_highF3_RE_da,206384,208144,3,da,1131,90
58,sub-014,2,Sham,LE_highF3_RE_amb,209384,211144,0,NaN,0,90
59,sub-014,2,Sham,no_stimulus,212384,0,0,NaN,0,90
60,sub-014,2,Sham,LE_lowF3_RE_amb,215383,217140,2,ga,973,30
61,sub-014,2,Sham,LE_highF3_RE_amb,218383,220156,3,da,1111,270
62,sub-014,2,Sham,LE_highF3_RE_amb,221383,223148,0,NaN,0,150
63,sub-014,2,Sham,LE_highF3_RE_da,224383,226144,3,da,800,90
64,sub-014,2,Sham,no_stimulus,227383,0,0,NaN,0,90
65,sub-014,2,Sham,LE_highF3_RE_amb,230383,232156,3,da,786,270
66,sub-014,2,Sham,LE_lowF3_RE_amb,233383,235144,3,da,1062,90
67,sub-014,2,Sham,LE_lowF3_RE_ga,236383,238144,2,ga,1033,90
68,sub-014,2,Sham,no_stimulus,239383,0,0,NaN,0,90
69,sub-014,2,Sham,LE_lowF3_RE_amb,242383,244152,2,ga,1131,210
70,sub-014,2,Sham,no_stimulus,245383,0,0,NaN,0,210
71,sub-014,2,Sham,LE_lowF3_RE_amb,248383,250148,2,ga,1055,150
72,sub-014,2,Sham,LE_lowF3_RE_ga,251383,253148,2,ga,1026,150
73,sub-014,2,Sham,LE_lowF3_RE_amb,254382,256156,2,ga,906,270
74,sub-014,2,Sham,no_stimulus,257382,0,0,NaN,0,270
75,sub-014,2,Sham,LE_lowF3_RE_amb,260382,262151,2,ga,902,210
76,sub-014,2,Sham,no_stimulus,263382,0,0,NaN,0,210
77,sub-014,2,Sham,LE_lowF3_RE_amb,266382,268143,0,NaN,0,90
78,sub-014,2,Sham,no_stimulus,269382,0,0,NaN,0,90
79,sub-014,2,Sham,LE_highF3_RE_amb,272382,274147,3,da,995,150
80,sub-014,2,Sham,LE_highF3_RE_da,275382,277155,3,da,758,270
81,sub-014,2,Sham,LE_lowF3_RE_amb,278382,280160,0,NaN,0,330
82,sub-014,2,Sham,LE_lowF3_RE_amb,281382,283147,2,ga,730,150
83,sub-014,2,Sham,LE_lowF3_RE_ga,284382,286159,2,ga,798,330
84,sub-014,2,Sham,LE_lowF3_RE_amb,287382,289151,2,ga,936,210
85,sub-014,2,Sham,no_stimulus,290382,0,0,NaN,0,210
86,sub-014,2,Sham,LE_highF3_RE_amb,293381,295138,0,NaN,0,30
87,sub-014,2,Sham,LE_highF3_RE_da,296381,298138,3,da,644,30
88,sub-014,2,Sham,no_stimulus,299381,0,0,NaN,0,30
89,sub-014,2,Sham,LE_highF3_RE_amb,302381,304147,0,NaN,0,150
90,sub-014,2,Sham,no_stimulus,305381,0,0,NaN,0,150
91,sub-014,2,Sham,LE_lowF3_RE_amb,308381,310155,2,ga,751,270
92,sub-014,2,Sham,no_stimulus,311381,0,0,NaN,0,270
93,sub-014,2,Sham,LE_highF3_RE_amb,314381,316155,3,da,541,270
94,sub-014,2,Sham,LE_highF3_RE_da,317381,319146,0,NaN,0,150
95,sub-014,2,Sham,LE_highF3_RE_amb,320381,322138,0,NaN,0,30
96,sub-014,2,Sham,no_stimulus,323381,0,0,NaN,0,30
97,sub-014,2,Sham,LE_highF3_RE_amb,326381,328138,3,da,813,30
98,sub-014,2,Sham,LE_highF3_RE_amb,329381,331159,3,da,997,330
99,sub-014,2,Sham,no_stimulus,332381,0,0,NaN,0,330
100,sub-014,2,Sham,LE_lowF3_RE_amb,335380,337138,2,ga,920,30
101,sub-014,2,Sham,no_stimulus,338380,0,0,NaN,0,30
102,sub-014,2,Sham,LE_highF3_RE_amb,341380,343142,3,da,1009,90
103,sub-014,2,Sham,no_stimulus,344380,0,0,NaN,0,90
104,sub-014,2,Sham,LE_highF3_RE_amb,347380,349154,3,da,710,270
105,sub-014,2,Sham,no_stimulus,350380,0,0,NaN,0,270
106,sub-014,2,Sham,LE_lowF3_RE_amb,353380,355146,2,ga,1058,150
107,sub-014,2,Sham,LE_lowF3_RE_ga,356380,358154,0,NaN,0,270
108,sub-014,2,Sham,LE_highF3_RE_amb,359380,361141,3,da,856,90
109,sub-014,2,Sham,LE_lowF3_RE_amb,362380,364158,0,NaN,0,330
110,sub-014,2,Sham,LE_lowF3_RE_amb,365380,367146,2,ga,928,150
111,sub-014,2,Sham,no_stimulus,368380,0,0,NaN,0,150
112,sub-014,2,Sham,LE_lowF3_RE_amb,371380,373141,2,ga,872,90
113,sub-014,2,Sham,LE_highF3_RE_amb,374379,376150,3,da,1106,210
114,sub-014,2,Sham,LE_highF3_RE_da,377379,379154,3,da,654,270
115,sub-014,2,Sham,LE_lowF3_RE_amb,380379,382149,3,da,564,210
116,sub-014,2,Sham,no_stimulus,383379,0,0,NaN,0,210
117,sub-014,2,Sham,LE_lowF3_RE_amb,386379,388153,2,ga,1006,270
118,sub-014,2,Sham,LE_highF3_RE_da,389379,391149,3,da,883,210
119,sub-014,2,Sham,LE_highF3_RE_amb,392379,394158,3,da,1047,330
120,sub-014,2,Sham,no_stimulus,395379,0,0,NaN,0,330
121,sub-014,2,Sham,LE_highF3_RE_amb,398379,400145,3,da,724,150
122,sub-014,2,Sham,LE_lowF3_RE_ga,401379,403153,2,ga,811,270
123,sub-014,2,Sham,no_stimulus,404379,0,0,NaN,0,270
124,sub-014,2,Sham,LE_lowF3_RE_amb,407379,409137,3,da,786,30
125,sub-014,2,Sham,LE_highF3_RE_da,410379,412157,3,da,937,330
126,sub-014,2,Sham,LE_lowF3_RE_ga,413378,415141,0,NaN,0,90
127,sub-014,2,Sham,no_stimulus,416378,0,0,NaN,0,90
128,sub-014,2,Sham,no_stimulus,419378,0,0,NaN,0,90
1,sub-014,3,aph40Hz,no_stimulus,36233,0,0,NaN,0,0
2,sub-014,3,aph40Hz,no_stimulus,39233,0,0,NaN,0,0
3,sub-014,3,aph40Hz,LE_highF3_RE_da,42232,43996,0,NaN,0,150
4,sub-014,3,aph40Hz,LE_lowF3_RE_ga,45232,47000,2,ga,1043,210
5,sub-014,3,aph40Hz,no_stimulus,48232,0,0,NaN,0,210
6,sub-014,3,aph40Hz,LE_lowF3_RE_amb,51232,53000,2,ga,953,210
7,sub-014,3,aph40Hz,LE_highF3_RE_da,54232,56004,3,da,848,270
8,sub-014,3,aph40Hz,LE_highF3_RE_amb,57232,58991,0,NaN,0,90
9,sub-014,3,aph40Hz,no_stimulus,60232,0,0,NaN,0,90
10,sub-014,3,aph40Hz,LE_highF3_RE_amb,63232,65004,0,NaN,0,270
11,sub-014,3,aph40Hz,LE_highF3_RE_amb,66232,67991,3,da,873,90
12,sub-014,3,aph40Hz,LE_highF3_RE_amb,69232,71004,3,da,786,270
13,sub-014,3,aph40Hz,LE_lowF3_RE_amb,72232,73987,0,NaN,0,30
14,sub-014,3,aph40Hz,LE_lowF3_RE_ga,75232,77008,2,ga,638,330
15,sub-014,3,aph40Hz,no_stimulus,78232,0,0,NaN,0,330
16,sub-014,3,aph40Hz,LE_highF3_RE_amb,81232,82991,2,ga,651,90
17,sub-014,3,aph40Hz,LE_highF3_RE_da,84231,85995,3,da,762,150
18,sub-014,3,aph40Hz,LE_lowF3_RE_ga,87231,88987,2,ga,717,30
19,sub-014,3,aph40Hz,no_stimulus,90231,0,0,NaN,0,30
20,sub-014,3,aph40Hz,LE_lowF3_RE_amb,93231,95007,0,NaN,0,330
21,sub-014,3,aph40Hz,LE_lowF3_RE_ga,96231,97987,2,ga,728,30
22,sub-014,3,aph40Hz,no_stimulus,99231,0,0,NaN,0,30
23,sub-014,3,aph40Hz,LE_lowF3_RE_amb,102231,103999,2,ga,662,210
24,sub-014,3,aph40Hz,no_stimulus,105231,0,0,NaN,0,210
25,sub-014,3,aph40Hz,LE_highF3_RE_amb,108231,109995,2,ga,823,150
26,sub-014,3,aph40Hz,no_stimulus,111231,0,0,NaN,0,150
27,sub-014,3,aph40Hz,LE_lowF3_RE_amb,114231,115995,2,ga,586,150
28,sub-014,3,aph40Hz,no_stimulus,117231,0,0,NaN,0,150
29,sub-014,3,aph40Hz,LE_lowF3_RE_amb,120231,122007,2,ga,661,330
30,sub-014,3,aph40Hz,LE_lowF3_RE_ga,123230,124999,2,ga,635,210
31,sub-014,3,aph40Hz,no_stimulus,126230,0,0,NaN,0,210
32,sub-014,3,aph40Hz,LE_lowF3_RE_amb,129230,130998,2,ga,532,210
33,sub-014,3,aph40Hz,LE_lowF3_RE_amb,132230,133994,2,ga,583,150
34,sub-014,3,aph40Hz,LE_highF3_RE_amb,135230,136986,3,da,956,30
35,sub-014,3,aph40Hz,LE_lowF3_RE_ga,138230,139990,2,ga,670,90
36,sub-014,3,aph40Hz,no_stimulus,141230,0,0,NaN,0,90
37,sub-014,3,aph40Hz,LE_highF3_RE_amb,144230,145998,3,da,840,210
38,sub-014,3,aph40Hz,no_stimulus,147230,0,0,NaN,0,210
39,sub-014,3,aph40Hz,LE_highF3_RE_amb,150230,151990,3,da,921,90
40,sub-014,3,aph40Hz,LE_lowF3_RE_ga,153230,154990,2,ga,851,90
41,sub-014,3,aph40Hz,LE_highF3_RE_da,156230,157990,3,da,789,90
42,sub-014,3,aph40Hz,LE_lowF3_RE_amb,159230,161002,2,ga,954,270
43,sub-014,3,aph40Hz,no_stimulus,162230,0,0,NaN,0,270
44,sub-014,3,aph40Hz,LE_lowF3_RE_amb,165229,167006,2,ga,702,330
45,sub-014,3,aph40Hz,LE_lowF3_RE_amb,168229,169994,0,NaN,0,150
46,sub-014,3,aph40Hz,LE_highF3_RE_amb,171229,172998,3,da,1026,210
47,sub-014,3,aph40Hz,LE_highF3_RE_da,174229,175989,3,da,703,90
48,sub-014,3,aph40Hz,no_stimulus,177229,0,0,NaN,0,90
49,sub-014,3,aph40Hz,LE_lowF3_RE_amb,180229,181989,2,ga,1042,90
50,sub-014,3,aph40Hz,no_stimulus,183229,0,0,NaN,0,90
51,sub-014,3,aph40Hz,LE_lowF3_RE_amb,186229,187993,2,ga,932,150
52,sub-014,3,aph40Hz,no_stimulus,189229,0,0,NaN,0,150
53,sub-014,3,aph40Hz,LE_highF3_RE_amb,192229,194006,0,NaN,0,330
54,sub-014,3,aph40Hz,no_stimulus,195229,0,0,NaN,0,330
55,sub-014,3,aph40Hz,LE_lowF3_RE_amb,198229,200001,2,ga,719,270
56,sub-014,3,aph40Hz,LE_lowF3_RE_ga,201229,202993,2,ga,779,150
57,sub-014,3,aph40Hz,no_stimulus,204228,0,0,NaN,0,150
58,sub-014,3,aph40Hz,LE_highF3_RE_amb,207228,208989,2,ga,942,90
59,sub-014,3,aph40Hz,no_stimulus,210228,0,0,NaN,0,90
60,sub-014,3,aph40Hz,LE_highF3_RE_amb,213228,214997,2,ga,592,210
61,sub-014,3,aph40Hz,no_stimulus,216228,0,0,NaN,0,210
62,sub-014,3,aph40Hz,LE_highF3_RE_amb,219228,220997,2,ga,956,210
63,sub-014,3,aph40Hz,LE_highF3_RE_amb,222228,223984,0,NaN,0,30
64,sub-014,3,aph40Hz,LE_lowF3_RE_ga,225228,226993,2,ga,768,150
65,sub-014,3,aph40Hz,LE_highF3_RE_amb,228228,229993,3,da,657,150
66,sub-014,3,aph40Hz,no_stimulus,231228,0,0,NaN,0,150
67,sub-014,3,aph40Hz,LE_lowF3_RE_amb,234228,235984,2,ga,695,30
68,sub-014,3,aph40Hz,LE_lowF3_RE_amb,237228,239005,2,ga,880,330
69,sub-014,3,aph40Hz,no_stimulus,240228,0,0,NaN,0,330
70,sub-014,3,aph40Hz,LE_lowF3_RE_amb,243228,244988,2,ga,933,90
71,sub-014,3,aph40Hz,no_stimulus,246227,0,0,NaN,0,90
72,sub-014,3,aph40Hz,LE_highF3_RE_amb,249227,251001,3,da,1141,270
73,sub-014,3,aph40Hz,LE_lowF3_RE_ga,252227,254001,2,ga,960,270
74,sub-014,3,aph40Hz,no_stimulus,255227,0,0,NaN,0,270
75,sub-014,3,aph40Hz,LE_lowF3_RE_amb,258227,259988,2,ga,728,90
76,sub-014,3,aph40Hz,LE_lowF3_RE_ga,261227,262996,0,NaN,0,210
77,sub-014,3,aph40Hz,LE_lowF3_RE_amb,264227,266000,2,ga,922,270
78,sub-014,3,aph40Hz,no_stimulus,267227,0,0,NaN,0,270
79,sub-014,3,aph40Hz,LE_highF3_RE_amb,270227,271984,3,da,827,30
80,sub-014,3,aph40Hz,LE_lowF3_RE_amb,273227,275004,2,ga,1017,330
81,sub-014,3,aph40Hz,no_stimulus,276227,0,0,NaN,0,330
82,sub-014,3,aph40Hz,LE_highF3_RE_amb,279227,281000,0,NaN,0,270
83,sub-014,3,aph40Hz,LE_highF3_RE_da,282226,283996,3,da,916,210
84,sub-014,3,aph40Hz,LE_lowF3_RE_amb,285226,286996,0,NaN,0,210
85,sub-014,3,aph40Hz,no_stimulus,288226,0,0,NaN,0,210
86,sub-014,3,aph40Hz,LE_lowF3_RE_amb,291226,292992,2,ga,578,150
87,sub-014,3,aph40Hz,LE_highF3_RE_da,294226,295996,3,da,799,210
88,sub-014,3,aph40Hz,LE_lowF3_RE_amb,297226,298987,2,ga,702,90
89,sub-014,3,aph40Hz,no_stimulus,300226,0,0,NaN,0,90
90,sub-014,3,aph40Hz,LE_highF3_RE_amb,303226,304983,3,da,655,30
91,sub-014,3,aph40Hz,LE_highF3_RE_amb,306226,307991,0,NaN,0,150
92,sub-014,3,aph40Hz,LE_highF3_RE_da,309226,310983,3,da,681,30
93,sub-014,3,aph40Hz,LE_lowF3_RE_amb,312226,313983,2,ga,619,30
94,sub-014,3,aph40Hz,LE_lowF3_RE_amb,315226,316987,2,ga,818,90
95,sub-014,3,aph40Hz,LE_highF3_RE_amb,318226,320004,3,da,602,330
96,sub-014,3,aph40Hz,LE_highF3_RE_da,321226,323004,3,da,705,330
97,sub-014,3,aph40Hz,LE_highF3_RE_amb,324225,325995,3,da,619,210
98,sub-014,3,aph40Hz,no_stimulus,327225,0,0,NaN,0,210
99,sub-014,3,aph40Hz,LE_highF3_RE_amb,330225,331991,3,da,485,150
100,sub-014,3,aph40Hz,no_stimulus,333225,0,0,NaN,0,150
101,sub-014,3,aph40Hz,LE_lowF3_RE_amb,336225,337999,0,NaN,0,270
102,sub-014,3,aph40Hz,no_stimulus,339225,0,0,NaN,0,270
103,sub-014,3,aph40Hz,LE_highF3_RE_amb,342225,344003,3,da,502,330
104,sub-014,3,aph40Hz,LE_lowF3_RE_ga,345225,347003,0,NaN,0,330
105,sub-014,3,aph40Hz,no_stimulus,348225,0,0,NaN,0,330
106,sub-014,3,aph40Hz,LE_highF3_RE_amb,351225,353003,3,da,743,330
107,sub-014,3,aph40Hz,LE_highF3_RE_da,354225,355982,0,NaN,0,30
108,sub-014,3,aph40Hz,no_stimulus,357225,0,0,NaN,0,30
109,sub-014,3,aph40Hz,LE_highF3_RE_amb,360225,361990,3,da,791,150
110,sub-014,3,aph40Hz,LE_lowF3_RE_ga,363224,364999,3,da,781,270
111,sub-014,3,aph40Hz,no_stimulus,366224,0,0,NaN,0,270
112,sub-014,3,aph40Hz,LE_lowF3_RE_amb,369224,370982,0,NaN,0,30
113,sub-014,3,aph40Hz,LE_highF3_RE_da,372224,373990,3,da,924,150
114,sub-014,3,aph40Hz,no_stimulus,375224,0,0,NaN,0,150
115,sub-014,3,aph40Hz,LE_highF3_RE_amb,378224,379982,3,da,832,30
116,sub-014,3,aph40Hz,LE_lowF3_RE_amb,381224,382994,3,da,733,210
117,sub-014,3,aph40Hz,LE_highF3_RE_da,384224,386003,3,da,616,330
118,sub-014,3,aph40Hz,no_stimulus,387224,0,0,NaN,0,330
119,sub-014,3,aph40Hz,LE_lowF3_RE_amb,390224,391998,3,da,899,270
120,sub-014,3,aph40Hz,LE_highF3_RE_da,393224,394998,3,da,722,270
121,sub-014,3,aph40Hz,LE_highF3_RE_amb,396224,398002,3,da,633,330
122,sub-014,3,aph40Hz,LE_highF3_RE_amb,399224,400998,0,NaN,0,270
123,sub-014,3,aph40Hz,no_stimulus,402224,0,0,NaN,0,270
124,sub-014,3,aph40Hz,LE_lowF3_RE_amb,405223,406981,3,da,807,30
125,sub-014,3,aph40Hz,LE_lowF3_RE_ga,408223,409981,0,NaN,0,30
126,sub-014,3,aph40Hz,LE_highF3_RE_da,411223,413002,3,da,901,330
127,sub-014,3,aph40Hz,no_stimulus,414223,0,0,NaN,0,330
128,sub-014,3,aph40Hz,no_stimulus,417223,0,0,NaN,0,330
1,sub-014,4,Sham,no_stimulus,36009,0,0,NaN,0,0
2,sub-014,4,Sham,no_stimulus,39009,0,0,NaN,0,0
3,sub-014,4,Sham,LE_lowF3_RE_ga,42009,43785,3,da,987,330
4,sub-014,4,Sham,LE_lowF3_RE_ga,45009,46768,0,NaN,0,90
5,sub-014,4,Sham,LE_highF3_RE_amb,48009,49785,3,da,519,330
6,sub-014,4,Sham,LE_lowF3_RE_ga,51009,52772,2,ga,508,150
7,sub-014,4,Sham,no_stimulus,54009,0,0,NaN,0,150
8,sub-014,4,Sham,LE_highF3_RE_amb,57008,58772,3,da,986,150
9,sub-014,4,Sham,LE_highF3_RE_amb,60008,61780,0,NaN,0,270
10,sub-014,4,Sham,no_stimulus,63008,0,0,NaN,0,270
11,sub-014,4,Sham,LE_lowF3_RE_amb,66008,67784,3,da,817,330
12,sub-014,4,Sham,no_stimulus,69008,0,0,NaN,0,330
13,sub-014,4,Sham,LE_lowF3_RE_amb,72008,73784,2,ga,1022,330
14,sub-014,4,Sham,LE_lowF3_RE_amb,75008,76772,3,da,637,150
15,sub-014,4,Sham,LE_lowF3_RE_amb,78008,79784,3,da,814,330
16,sub-014,4,Sham,no_stimulus,81008,0,0,NaN,0,330
17,sub-014,4,Sham,LE_highF3_RE_amb,84008,85763,0,NaN,0,30
18,sub-014,4,Sham,LE_lowF3_RE_amb,87008,88763,3,da,754,30
19,sub-014,4,Sham,LE_lowF3_RE_ga,90008,91763,2,ga,995,30
20,sub-014,4,Sham,no_stimulus,93008,0,0,NaN,0,30
21,sub-014,4,Sham,LE_highF3_RE_amb,96008,97775,0,NaN,0,210
22,sub-014,4,Sham,LE_highF3_RE_da,99007,100775,3,da,804,210
23,sub-014,4,Sham,no_stimulus,102007,0,0,NaN,0,210
24,sub-014,4,Sham,LE_lowF3_RE_amb,105007,106784,3,da,1106,330
25,sub-014,4,Sham,LE_highF3_RE_amb,108007,109763,3,da,1064,30
26,sub-014,4,Sham,no_stimulus,111007,0,0,NaN,0,30
27,sub-014,4,Sham,LE_lowF3_RE_amb,114007,115779,2,ga,905,270
28,sub-014,4,Sham,LE_highF3_RE_amb,117007,118763,3,da,934,30
29,sub-014,4,Sham,LE_highF3_RE_da,120007,121783,3,da,755,330
30,sub-014,4,Sham,no_stimulus,123007,0,0,NaN,0,330
31,sub-014,4,Sham,LE_highF3_RE_amb,126007,127775,3,da,658,210
32,sub-014,4,Sham,no_stimulus,129007,0,0,NaN,0,210
33,sub-014,4,Sham,LE_highF3_RE_amb,132007,133762,3,da,764,30
34,sub-014,4,Sham,LE_highF3_RE_da,135006,136766,3,da,993,90
35,sub-014,4,Sham,no_stimulus,138006,0,0,NaN,0,90
36,sub-014,4,Sham,LE_highF3_RE_amb,141006,142762,0,NaN,0,30
37,sub-014,4,Sham,LE_highF3_RE_da,144006,145779,3,da,911,270
38,sub-014,4,Sham,no_stimulus,147006,0,0,NaN,0,270
39,sub-014,4,Sham,LE_highF3_RE_amb,150006,151783,3,da,1125,330
40,sub-014,4,Sham,LE_highF3_RE_da,153006,154766,3,da,1032,90
41,sub-014,4,Sham,LE_lowF3_RE_amb,156006,157779,3,da,949,270
42,sub-014,4,Sham,LE_lowF3_RE_amb,159006,160774,2,ga,670,210
43,sub-014,4,Sham,LE_highF3_RE_amb,162006,163774,2,ga,739,210
44,sub-014,4,Sham,LE_highF3_RE_da,165006,166783,2,ga,768,330
45,sub-014,4,Sham,no_stimulus,168006,0,0,NaN,0,330
46,sub-014,4,Sham,LE_highF3_RE_amb,171006,172766,2,ga,653,90
47,sub-014,4,Sham,no_stimulus,174006,0,0,NaN,0,90
48,sub-014,4,Sham,LE_highF3_RE_amb,177005,178770,2,ga,845,150
49,sub-014,4,Sham,LE_highF3_RE_da,180005,181774,3,da,1112,210
50,sub-014,4,Sham,no_stimulus,183005,0,0,NaN,0,210
51,sub-014,4,Sham,LE_highF3_RE_amb,186005,187782,2,ga,929,330
52,sub-014,4,Sham,no_stimulus,189005,0,0,NaN,0,330
53,sub-014,4,Sham,LE_lowF3_RE_amb,192005,193774,2,ga,707,210
54,sub-014,4,Sham,LE_lowF3_RE_ga,195005,196774,2,ga,717,210
55,sub-014,4,Sham,no_stimulus,198005,0,0,NaN,0,210
56,sub-014,4,Sham,LE_highF3_RE_amb,201005,202765,3,da,1024,90
57,sub-014,4,Sham,LE_highF3_RE_amb,204005,205769,3,da,871,150
58,sub-014,4,Sham,LE_highF3_RE_amb,207005,208765,0,NaN,0,90
59,sub-014,4,Sham,no_stimulus,210005,0,0,NaN,0,90
60,sub-014,4,Sham,LE_lowF3_RE_amb,213005,214778,2,ga,898,270
61,sub-014,4,Sham,LE_highF3_RE_amb,216005,217765,0,NaN,0,90
62,sub-014,4,Sham,LE_lowF3_RE_ga,219004,220782,2,ga,590,330
63,sub-014,4,Sham,no_stimulus,222004,0,0,NaN,0,330
64,sub-014,4,Sham,LE_lowF3_RE_amb,225004,226769,2,ga,906,150
65,sub-014,4,Sham,LE_lowF3_RE_ga,228004,229765,2,ga,844,90
66,sub-014,4,Sham,LE_lowF3_RE_ga,231004,232769,2,ga,1107,150
67,sub-014,4,Sham,no_stimulus,234004,0,0,NaN,0,150
68,sub-014,4,Sham,LE_lowF3_RE_amb,237004,238769,2,ga,815,150
69,sub-014,4,Sham,LE_lowF3_RE_ga,240004,241773,2,ga,811,210
70,sub-014,4,Sham,no_stimulus,243004,0,0,NaN,0,210
71,sub-014,4,Sham,LE_lowF3_RE_amb,246004,247760,2,ga,886,30
72,sub-014,4,Sham,LE_highF3_RE_da,249004,250760,3,da,1028,30
73,sub-014,4,Sham,LE_highF3_RE_amb,252004,253777,2,ga,1034,270
74,sub-014,4,Sham,LE_lowF3_RE_amb,255003,256777,0,NaN,0,270
75,sub-014,4,Sham,LE_highF3_RE_da,258003,259777,3,da,776,270
76,sub-014,4,Sham,no_stimulus,261003,0,0,NaN,0,270
77,sub-014,4,Sham,LE_highF3_RE_amb,264003,265777,3,da,677,270
78,sub-014,4,Sham,no_stimulus,267003,0,0,NaN,0,270
79,sub-014,4,Sham,LE_lowF3_RE_amb,270003,271777,2,ga,519,270
80,sub-014,4,Sham,no_stimulus,273003,0,0,NaN,0,270
81,sub-014,4,Sham,LE_lowF3_RE_amb,276003,277772,2,ga,916,210
82,sub-014,4,Sham,LE_lowF3_RE_ga,279003,280776,0,NaN,0,270
83,sub-014,4,Sham,no_stimulus,282003,0,0,NaN,0,270
84,sub-014,4,Sham,LE_lowF3_RE_amb,285003,286768,3,da,876,150
85,sub-014,4,Sham,no_stimulus,288003,0,0,NaN,0,150
86,sub-014,4,Sham,LE_highF3_RE_amb,291003,292768,3,da,783,150
87,sub-014,4,Sham,no_stimulus,294002,0,0,NaN,0,150
88,sub-014,4,Sham,LE_highF3_RE_amb,297002,298780,0,NaN,0,330
89,sub-014,4,Sham,LE_lowF3_RE_ga,300002,301759,2,ga,1066,30
90,sub-014,4,Sham,LE_lowF3_RE_amb,303002,304764,3,da,804,90
91,sub-014,4,Sham,LE_lowF3_RE_amb,306002,307772,2,ga,759,210
92,sub-014,4,Sham,LE_highF3_RE_amb,309002,310780,3,da,899,330
93,sub-014,4,Sham,LE_lowF3_RE_ga,312002,313776,2,ga,706,270
94,sub-014,4,Sham,LE_lowF3_RE_amb,315002,316763,0,NaN,0,90
95,sub-014,4,Sham,no_stimulus,318002,0,0,NaN,0,90
96,sub-014,4,Sham,LE_highF3_RE_amb,321002,322776,3,da,526,270
97,sub-014,4,Sham,LE_highF3_RE_da,324002,325767,3,da,1071,150
98,sub-014,4,Sham,no_stimulus,327002,0,0,NaN,0,150
99,sub-014,4,Sham,LE_lowF3_RE_amb,330002,331763,2,ga,835,90
100,sub-014,4,Sham,LE_lowF3_RE_ga,333002,334763,2,ga,1146,90
101,sub-014,4,Sham,no_stimulus,336002,0,0,NaN,0,90
102,sub-014,4,Sham,LE_lowF3_RE_amb,339001,340759,2,ga,867,30
103,sub-014,4,Sham,LE_lowF3_RE_ga,342001,343780,2,ga,781,330
104,sub-014,4,Sham,LE_highF3_RE_amb,345001,346771,3,da,807,210
105,sub-014,4,Sham,LE_highF3_RE_amb,348001,349767,3,da,940,150
106,sub-014,4,Sham,no_stimulus,351001,0,0,NaN,0,150
107,sub-014,4,Sham,LE_highF3_RE_amb,354001,355775,0,NaN,0,270
108,sub-014,4,Sham,no_stimulus,357001,0,0,NaN,0,270
109,sub-014,4,Sham,LE_lowF3_RE_amb,360001,361771,0,NaN,0,210
110,sub-014,4,Sham,LE_highF3_RE_da,363001,364767,3,da,778,150
111,sub-014,4,Sham,no_stimulus,366001,0,0,NaN,0,150
112,sub-014,4,Sham,LE_lowF3_RE_amb,369001,370762,2,ga,919,90
113,sub-014,4,Sham,LE_highF3_RE_da,372001,373758,3,da,683,30
114,sub-014,4,Sham,LE_lowF3_RE_amb,375000,376767,0,NaN,0,150
115,sub-014,4,Sham,no_stimulus,378000,0,0,NaN,0,150
116,sub-014,4,Sham,LE_highF3_RE_amb,381000,382771,3,da,699,210
117,sub-014,4,Sham,no_stimulus,384000,0,0,NaN,0,210
118,sub-014,4,Sham,LE_highF3_RE_amb,387000,388762,3,da,614,90
119,sub-014,4,Sham,LE_lowF3_RE_amb,390000,391758,3,da,915,30
120,sub-014,4,Sham,LE_lowF3_RE_amb,393000,394779,3,da,781,330
121,sub-014,4,Sham,no_stimulus,396000,0,0,NaN,0,330
122,sub-014,4,Sham,LE_lowF3_RE_amb,399000,400758,3,da,739,30
123,sub-014,4,Sham,no_stimulus,402000,0,0,NaN,0,30
124,sub-014,4,Sham,LE_lowF3_RE_amb,405000,406762,2,ga,506,90
125,sub-014,4,Sham,LE_highF3_RE_da,408000,409758,3,da,825,30
126,sub-014,4,Sham,LE_highF3_RE_da,411000,412766,0,NaN,0,150
127,sub-014,4,Sham,no_stimulus,413999,0,0,NaN,0,150
128,sub-014,4,Sham,no_stimulus,416999,0,0,NaN,0,150
1,sub-014,5,aph40Hz,no_stimulus,40705,0,0,NaN,0,0
2,sub-014,5,aph40Hz,no_stimulus,43705,0,0,NaN,0,0
3,sub-014,5,aph40Hz,LE_highF3_RE_da,46705,48477,0,NaN,0,270
4,sub-014,5,aph40Hz,LE_highF3_RE_da,49705,51468,3,da,722,150
5,sub-014,5,aph40Hz,LE_highF3_RE_da,52705,54473,3,da,564,210
6,sub-014,5,aph40Hz,LE_lowF3_RE_amb,55705,57468,3,da,955,150
7,sub-014,5,aph40Hz,no_stimulus,58705,0,0,NaN,0,150
8,sub-014,5,aph40Hz,LE_highF3_RE_amb,61705,63472,3,da,1132,210
9,sub-014,5,aph40Hz,no_stimulus,64705,0,0,NaN,0,210
10,sub-014,5,aph40Hz,LE_highF3_RE_amb,67705,69460,3,da,767,30
11,sub-014,5,aph40Hz,no_stimulus,70705,0,0,NaN,0,30
12,sub-014,5,aph40Hz,LE_highF3_RE_amb,73705,75468,3,da,835,150
13,sub-014,5,aph40Hz,no_stimulus,76705,0,0,NaN,0,150
14,sub-014,5,aph40Hz,LE_highF3_RE_amb,79704,81468,3,da,812,150
15,sub-014,5,aph40Hz,LE_lowF3_RE_ga,82704,84476,3,da,823,270
16,sub-014,5,aph40Hz,no_stimulus,85704,0,0,NaN,0,270
17,sub-014,5,aph40Hz,LE_highF3_RE_amb,88704,90476,3,da,859,270
18,sub-014,5,aph40Hz,LE_lowF3_RE_ga,91704,93480,2,ga,646,330
19,sub-014,5,aph40Hz,no_stimulus,94704,0,0,NaN,0,330
20,sub-014,5,aph40Hz,LE_highF3_RE_amb,97704,99476,0,NaN,0,270
21,sub-014,5,aph40Hz,LE_lowF3_RE_amb,100704,102459,3,da,801,30
22,sub-014,5,aph40Hz,LE_lowF3_RE_ga,103704,105459,2,ga,565,30
23,sub-014,5,aph40Hz,LE_highF3_RE_amb,106704,108463,3,da,769,90
24,sub-014,5,aph40Hz,no_stimulus,109704,0,0,NaN,0,90
25,sub-014,5,aph40Hz,LE_lowF3_RE_amb,112704,114476,2,ga,849,270
26,sub-014,5,aph40Hz,LE_lowF3_RE_ga,115703,117476,3,da,542,270
27,sub-014,5,aph40Hz,LE_highF3_RE_amb,118703,120467,0,NaN,0,150
28,sub-014,5,aph40Hz,LE_lowF3_RE_amb,121703,123476,2,ga,594,270
29,sub-014,5,aph40Hz,no_stimulus,124703,0,0,NaN,0,270
30,sub-014,5,aph40Hz,LE_lowF3_RE_amb,127703,129467,2,ga,1058,150
31,sub-014,5,aph40Hz,LE_highF3_RE_amb,130703,132459,3,da,904,30
32,sub-014,5,aph40Hz,no_stimulus,133703,0,0,NaN,0,30
33,sub-014,5,aph40Hz,LE_lowF3_RE_amb,136703,138475,3,da,776,270
34,sub-014,5,aph40Hz,no_stimulus,139703,0,0,NaN,0,270
35,sub-014,5,aph40Hz,LE_lowF3_RE_amb,142703,144459,2,ga,764,30
36,sub-014,5,aph40Hz,LE_lowF3_RE_ga,145703,147471,0,NaN,0,210
37,sub-014,5,aph40Hz,no_stimulus,148703,0,0,NaN,0,210
38,sub-014,5,aph40Hz,LE_lowF3_RE_amb,151703,153471,3,da,1135,210
39,sub-014,5,aph40Hz,LE_highF3_RE_da,154703,156475,3,da,889,270
40,sub-014,5,aph40Hz,no_stimulus,157703,0,0,NaN,0,270
41,sub-014,5,aph40Hz,LE_lowF3_RE_amb,160702,162458,3,da,633,30
42,sub-014,5,aph40Hz,LE_lowF3_RE_ga,163702,165479,2,ga,1062,330
43,sub-014,5,aph40Hz,no_stimulus,166702,0,0,NaN,0,330
44,sub-014,5,aph40Hz,LE_highF3_RE_amb,169702,171479,3,da,691,330
45,sub-014,5,aph40Hz,LE_lowF3_RE_ga,172702,174471,2,ga,868,210
46,sub-014,5,aph40Hz,no_stimulus,175702,0,0,NaN,0,210
47,sub-014,5,aph40Hz,LE_lowF3_RE_amb,178702,180475,3,da,616,270
48,sub-014,5,aph40Hz,no_stimulus,181702,0,0,NaN,0,270
49,sub-014,5,aph40Hz,LE_lowF3_RE_amb,184702,186462,3,da,1163,90
50,sub-014,5,aph40Hz,LE_lowF3_RE_ga,187702,189466,0,NaN,0,150
51,sub-014,5,aph40Hz,no_stimulus,190702,0,0,NaN,0,150
52,sub-014,5,aph40Hz,LE_highF3_RE_amb,193702,195479,3,da,1136,330
53,sub-014,5,aph40Hz,LE_highF3_RE_da,196701,198470,3,da,848,210
54,sub-014,5,aph40Hz,no_stimulus,199701,0,0,NaN,0,210
55,sub-014,5,aph40Hz,LE_highF3_RE_amb,202701,204474,3,da,806,270
56,sub-014,5,aph40Hz,LE_highF3_RE_da,205701,207462,3,da,834,90
57,sub-014,5,aph40Hz,LE_lowF3_RE_amb,208701,210474,0,NaN,0,270
58,sub-014,5,aph40Hz,no_stimulus,211701,0,0,NaN,0,270
59,sub-014,5,aph40Hz,LE_lowF3_RE_amb,214701,216462,3,da,717,90
60,sub-014,5,aph40Hz,LE_lowF3_RE_ga,217701,219457,2,ga,1110,30
61,sub-014,5,aph40Hz,LE_lowF3_RE_amb,220701,222470,3,da,931,210
62,sub-014,5,aph40Hz,LE_highF3_RE_amb,223701,225465,3,da,749,150
63,sub-014,5,aph40Hz,LE_lowF3_RE_ga,226701,228465,2,ga,948,150
64,sub-014,5,aph40Hz,LE_highF3_RE_amb,229701,231470,3,da,627,210
65,sub-014,5,aph40Hz,no_stimulus,232701,0,0,NaN,0,210
66,sub-014,5,aph40Hz,LE_highF3_RE_amb,235701,237461,3,da,634,90
67,sub-014,5,aph40Hz,LE_highF3_RE_amb,238700,240457,3,da,693,30
68,sub-014,5,aph40Hz,LE_lowF3_RE_ga,241700,243461,3,da,818,90
69,sub-014,5,aph40Hz,no_stimulus,244700,0,0,NaN,0,90
70,sub-014,5,aph40Hz,LE_highF3_RE_amb,247700,249457,3,da,869,30
71,sub-014,5,aph40Hz,LE_highF3_RE_da,250700,252473,3,da,679,270
72,sub-014,5,aph40Hz,LE_highF3_RE_amb,253700,255473,3,da,619,270
73,sub-014,5,aph40Hz,no_stimulus,256700,0,0,NaN,0,270
74,sub-014,5,aph40Hz,LE_lowF3_RE_amb,259700,261465,3,da,776,150
75,sub-014,5,aph40Hz,no_stimulus,262700,0,0,NaN,0,150
76,sub-014,5,aph40Hz,LE_highF3_RE_amb,265700,267469,3,da,645,210
77,sub-014,5,aph40Hz,LE_highF3_RE_da,268700,270456,3,da,846,30
78,sub-014,5,aph40Hz,no_stimulus,271700,0,0,NaN,0,30
79,sub-014,5,aph40Hz,LE_highF3_RE_amb,274699,276469,0,NaN,0,210
80,sub-014,5,aph40Hz,LE_highF3_RE_amb,277699,279473,3,da,621,270
81,sub-014,5,aph40Hz,no_stimulus,280699,0,0,NaN,0,270
82,sub-014,5,aph40Hz,LE_highF3_RE_amb,283699,285477,0,NaN,0,330
83,sub-014,5,aph40Hz,LE_highF3_RE_da,286699,288477,3,da,886,330
84,sub-014,5,aph40Hz,no_stimulus,289699,0,0,NaN,0,330
85,sub-014,5,aph40Hz,LE_highF3_RE_amb,292699,294460,0,NaN,0,90
86,sub-014,5,aph40Hz,no_stimulus,295699,0,0,NaN,0,90
87,sub-014,5,aph40Hz,LE_highF3_RE_amb,298699,300460,3,da,662,90
88,sub-014,5,aph40Hz,LE_lowF3_RE_amb,301699,303460,0,NaN,0,90
89,sub-014,5,aph40Hz,LE_lowF3_RE_ga,304699,306460,2,ga,931,90
90,sub-014,5,aph40Hz,LE_highF3_RE_amb,307699,309477,3,da,664,330
91,sub-014,5,aph40Hz,no_stimulus,310699,0,0,NaN,0,330
92,sub-014,5,aph40Hz,LE_lowF3_RE_amb,313699,315477,2,ga,923,330
93,sub-014,5,aph40Hz,LE_lowF3_RE_amb,316698,318468,3,da,651,210
94,sub-014,5,aph40Hz,LE_highF3_RE_amb,319698,321460,3,da,957,90
95,sub-014,5,aph40Hz,LE_lowF3_RE_amb,322698,324476,3,da,782,330
96,sub-014,5,aph40Hz,LE_highF3_RE_amb,325698,327476,3,da,622,330
97,sub-014,5,aph40Hz,LE_highF3_RE_da,328698,330460,3,da,581,90
98,sub-014,5,aph40Hz,no_stimulus,331698,0,0,NaN,0,90
99,sub-014,5,aph40Hz,LE_lowF3_RE_amb,334698,336455,3,da,576,30
100,sub-014,5,aph40Hz,LE_highF3_RE_da,337698,339464,3,da,734,150
101,sub-014,5,aph40Hz,no_stimulus,340698,0,0,NaN,0,150
102,sub-014,5,aph40Hz,LE_highF3_RE_amb,343698,345464,3,da,483,150
103,sub-014,5,aph40Hz,LE_highF3_RE_da,346698,348464,3,da,904,150
104,sub-014,5,aph40Hz,no_stimulus,349698,0,0,NaN,0,150
105,sub-014,5,aph40Hz,LE_lowF3_RE_amb,352698,354476,3,da,848,330
106,sub-014,5,aph40Hz,no_stimulus,355698,0,0,NaN,0,330
107,sub-014,5,aph40Hz,LE_lowF3_RE_amb,358697,360467,2,ga,833,210
108,sub-014,5,aph40Hz,no_stimulus,361697,0,0,NaN,0,210
109,sub-014,5,aph40Hz,LE_lowF3_RE_amb,364697,366459,3,da,828,90
110,sub-014,5,aph40Hz,no_stimulus,367697,0,0,NaN,0,90
111,sub-014,5,aph40Hz,LE_lowF3_RE_amb,370697,372463,0,NaN,0,150
112,sub-014,5,aph40Hz,LE_highF3_RE_da,373697,375476,3,da,753,330
113,sub-014,5,aph40Hz,LE_highF3_RE_amb,376697,378467,3,da,705,210
114,sub-014,5,aph40Hz,no_stimulus,379697,0,0,NaN,0,210
115,sub-014,5,aph40Hz,LE_lowF3_RE_amb,382697,384467,3,da,589,210
116,sub-014,5,aph40Hz,LE_lowF3_RE_amb,385697,387475,0,NaN,0,330
117,sub-014,5,aph40Hz,no_stimulus,388697,0,0,NaN,0,330
118,sub-014,5,aph40Hz,LE_lowF3_RE_amb,391697,393475,2,ga,890,330
119,sub-014,5,aph40Hz,LE_lowF3_RE_amb,394697,396454,3,da,904,30
120,sub-014,5,aph40Hz,LE_highF3_RE_da,397696,399454,2,ga,905,30
121,sub-014,5,aph40Hz,LE_lowF3_RE_amb,400696,402458,2,ga,676,90
122,sub-014,5,aph40Hz,LE_lowF3_RE_amb,403696,405463,2,ga,538,150
123,sub-014,5,aph40Hz,no_stimulus,406696,0,0,NaN,0,150
124,sub-014,5,aph40Hz,LE_highF3_RE_amb,409696,411454,3,da,889,30
125,sub-014,5,aph40Hz,LE_lowF3_RE_ga,412696,414454,2,ga,807,30
126,sub-014,5,aph40Hz,LE_lowF3_RE_ga,415696,417475,2,ga,665,330
127,sub-014,5,aph40Hz,no_stimulus,418696,0,0,NaN,0,330
128,sub-014,5,aph40Hz,no_stimulus,421696,0,0,NaN,0,330
1,sub-014,6,Sham,no_stimulus,36683,0,0,NaN,0,0
2,sub-014,6,Sham,no_stimulus,39683,0,0,NaN,0,0
3,sub-014,6,Sham,LE_highF3_RE_da,42683,44442,3,da,1096,90
4,sub-014,6,Sham,LE_lowF3_RE_ga,45683,47459,2,ga,930,330
5,sub-014,6,Sham,LE_lowF3_RE_amb,48683,50455,2,ga,684,270
6,sub-014,6,Sham,no_stimulus,51683,0,0,NaN,0,270
7,sub-014,6,Sham,LE_highF3_RE_amb,54683,56455,3,da,551,270
8,sub-014,6,Sham,LE_lowF3_RE_ga,57683,59450,2,ga,695,210
9,sub-014,6,Sham,no_stimulus,60683,0,0,NaN,0,210
10,sub-014,6,Sham,LE_lowF3_RE_amb,63683,65450,2,ga,752,210
11,sub-014,6,Sham,LE_lowF3_RE_amb,66683,68454,2,ga,827,270
12,sub-014,6,Sham,LE_lowF3_RE_ga,69683,71446,2,ga,745,150
13,sub-014,6,Sham,no_stimulus,72683,0,0,NaN,0,150
14,sub-014,6,Sham,LE_lowF3_RE_amb,75682,77442,2,ga,557,90
15,sub-014,6,Sham,LE_lowF3_RE_amb,78682,80458,2,ga,580,330
16,sub-014,6,Sham,LE_lowF3_RE_ga,81682,83437,2,ga,690,30
17,sub-014,6,Sham,LE_lowF3_RE_ga,84682,86446,2,ga,480,150
18,sub-014,6,Sham,no_stimulus,87682,0,0,NaN,0,150
19,sub-014,6,Sham,LE_lowF3_RE_amb,90682,92442,2,ga,580,90
20,sub-014,6,Sham,LE_lowF3_RE_ga,93682,95454,2,ga,827,270
21,sub-014,6,Sham,no_stimulus,96682,0,0,NaN,0,270
22,sub-014,6,Sham,LE_highF3_RE_amb,99682,101441,2,ga,985,90
23,sub-014,6,Sham,no_stimulus,102682,0,0,NaN,0,90
24,sub-014,6,Sham,LE_highF3_RE_amb,105682,107445,3,da,719,150
25,sub-014,6,Sham,no_stimulus,108682,0,0,NaN,0,150
26,sub-014,6,Sham,LE_lowF3_RE_amb,111681,113458,2,ga,1110,330
